CONTROLLER_FLAG,SL_PWM,U,SL_position,ARM_position,Sprung_acceleration_x
0,0.00,90.00,0.00,0.00000,10.04
0,810.79,145.70,1.95,0.00000,-0.00
0,810.79,145.70,8.58,-0.00157,0.03
0,810.79,145.70,18.39,-0.00157,-0.05
0,810.79,145.70,30.65,-0.00471,0.14
0,810.79,145.70,43.71,-0.01100,0.67
0,810.79,147.86,56.73,-0.01728,0.98
0,810.79,147.86,69.34,-0.02670,1.01
0,810.79,147.86,81.46,-0.03927,1.10
0,810.79,147.86,93.06,-0.05341,1.19
0,810.79,147.86,103.80,-0.07069,1.14
0,810.79,147.86,114.13,-0.08796,0.92
0,810.79,88.92,124.55,-0.10838,0.61
0,-462.10,88.92,134.91,-0.13352,0.38
0,-810.79,88.92,139.24,-0.15237,0.23
0,-810.79,88.92,135.15,-0.15865,-0.91
0,-810.79,88.92,125.82,-0.15394,-2.66
0,-810.79,59.46,112.19,-0.13666,-2.97
0,810.79,59.46,97.99,-0.11467,-2.65
0,810.79,59.46,90.55,-0.10053,-3.03
0,810.79,59.46,90.35,-0.09111,-2.31
0,-724.97,59.46,92.58,-0.09111,1.07
0,-810.79,59.46,89.18,-0.08954,2.88
0,-77.57,44.72,81.05,-0.08168,0.69
0,810.79,44.72,73.76,-0.06912,-0.39
0,492.66,44.72,71.72,-0.06597,-0.70
0,-577.86,44.72,71.81,-0.06283,0.21
0,-720.54,44.72,68.69,-0.06126,0.21
0,311.34,44.72,62.31,-0.05341,0.85
0,810.79,97.37,58.91,-0.04712,-0.08
0,810.79,97.37,61.50,-0.04712,-0.73
0,810.79,97.37,67.77,-0.05027,0.15
0,810.79,97.37,75.45,-0.05812,1.71
0,4.18,97.37,83.34,-0.06283,1.30
0,-810.79,63.68,87.23,-0.07069,0.95
0,-713.12,63.68,82.69,-0.07540,0.42
0,810.79,63.68,75.09,-0.07069,-0.82
0,810.79,63.68,72.51,-0.06597,-1.38
0,297.86,63.68,75.28,-0.06597,-0.58
0,-810.79,63.68,77.28,-0.06754,0.32
0,-567.34,46.84,73.35,-0.06597,-0.10
0,296.25,46.84,67.29,-0.05969,-0.27
0,767.42,46.84,63.54,-0.05341,-0.73
0,131.51,46.84,63.61,-0.05184,-0.62
0,-473.69,46.84,63.48,-0.05027,0.29
0,-596.22,46.84,61.62,-0.04869,0.77
0,-274.40,38.41,58.00,-0.04555,0.77
0,119.90,38.41,54.36,-0.04084,-0.01
0,571.27,38.41,50.99,-0.03613,-0.66
0,501.87,38.41,49.77,-0.03299,-0.67
0,241.48,38.41,49.21,-0.03142,-0.13
0,-82.99,34.20,48.93,-0.03142,0.62
0,-632.70,34.20,48.87,-0.03142,0.81
0,-454.94,34.20,46.28,-0.02985,0.27
0,229.78,34.20,42.59,-0.02670,-0.01
0,762.02,34.20,40.02,-0.02356,-0.28
0,284.08,34.20,40.94,-0.02356,-0.30
0,641.21,92.11,41.39,-0.02356,0.12
0,810.79,92.11,43.66,-0.02356,0.53
0,810.79,92.11,49.62,-0.02670,0.25
0,810.79,92.11,57.65,-0.03299,0.62
0,-10.97,92.11,65.69,-0.03927,0.93
0,-597.27,92.11,70.49,-0.04555,0.76
0,-568.08,61.05,70.38,-0.05027,0.18
0,-214.72,61.05,68.00,-0.05184,-0.68
0,455.14,61.05,65.04,-0.05027,-0.68
0,754.07,61.05,63.78,-0.05027,-1.14
0,215.33,61.05,65.16,-0.05027,-0.43
0,13.16,61.05,65.24,-0.05027,-0.04
0,810.79,105.53,65.66,-0.05027,-0.14
0,810.79,105.53,69.47,-0.05341,0.03
0,810.79,105.53,75.53,-0.05655,0.18
0,309.04,105.53,82.20,-0.05969,0.32
0,-248.17,105.53,86.65,-0.06440,0.62
0,325.71,127.77,87.48,-0.06912,0.47
0,810.79,127.77,87.82,-0.07383,0.19
0,810.79,127.77,90.86,-0.07854,-0.03
0,810.79,127.77,95.53,-0.08325,0.12
0,810.79,127.77,101.93,-0.09111,0.32
0,507.71,127.77,109.03,-0.09896,0.44
0,-372.92,138.89,114.65,-0.11153,0.56
0,-155.82,138.89,116.73,-0.12095,0.33
0,810.79,138.89,116.27,-0.13038,-0.01
0,810.79,138.89,118.15,-0.13352,-0.92
0,649.50,138.89,122.41,-0.13666,-0.92
0,-45.50,138.89,126.61,-0.14294,-0.74
0,-810.79,84.44,126.81,-0.14608,-0.18
0,-810.79,84.44,120.55,-0.14294,-0.26
0,441.15,84.44,110.65,-0.13195,-0.88
0,810.79,84.44,104.42,-0.12095,-1.06
0,810.79,84.44,104.58,-0.11938,-0.50
0,-765.98,57.22,106.77,-0.12095,-0.07
0,-810.79,57.22,103.92,-0.11938,0.41
0,-810.79,57.22,95.48,-0.10838,-0.06
0,750.18,57.22,84.30,-0.09111,-1.41
0,810.79,57.22,78.34,-0.07854,-2.63
0,810.79,57.22,78.99,-0.07226,-2.00
0,110.53,103.61,81.03,-0.07226,1.27
0,810.79,103.61,81.25,-0.07226,3.14
0,810.79,103.61,83.90,-0.07540,1.89
0,377.48,103.61,88.33,-0.08168,0.75
0,267.47,103.61,90.37,-0.08482,0.52
0,802.01,103.61,90.28,-0.08639,-0.04
0,810.79,126.81,92.50,-0.08796,-0.41
0,810.79,126.81,96.94,-0.09425,-0.41
0,553.55,126.81,103.11,-0.10053,0.21
0,113.20,126.81,107.27,-0.10681,0.60
0,373.02,126.81,108.67,-0.11467,0.65
0,810.79,138.41,109.01,-0.11781,0.24
0,810.79,138.41,112.20,-0.12095,-0.46
0,579.34,138.41,117.54,-0.12881,-0.44
0,117.87,138.41,121.41,-0.13509,0.09
0,336.03,138.41,122.64,-0.13823,0.27
0,810.79,138.41,122.94,-0.13980,-0.24
0,-168.62,84.20,125.97,-0.14294,-0.70
0,-810.79,84.20,125.14,-0.14294,-0.24
0,-810.79,84.20,117.80,-0.14137,-0.45
0,800.31,84.20,107.66,-0.12409,-0.69
0,810.79,84.20,102.49,-0.11781,-0.20
0,753.09,84.20,103.48,-0.11624,-0.39
0,-810.79,57.10,105.53,-0.11781,0.45
0,-810.79,57.10,101.16,-0.11467,0.44
0,-810.79,57.10,91.70,-0.10367,-0.93
0,810.79,57.10,80.74,-0.08325,-2.52
0,810.79,57.10,76.69,-0.07383,-2.52
0,751.93,57.10,77.81,-0.06912,-2.71
0,-810.79,43.54,79.32,-0.06912,-0.08
0,-810.79,43.54,74.36,-0.06597,3.04
0,504.89,43.54,65.53,-0.05655,1.66
0,810.79,43.54,60.61,-0.04869,0.10
0,523.01,43.54,61.34,-0.04712,-0.49
0,-769.96,36.77,62.98,-0.04712,-0.24
0,-810.79,36.77,59.57,-0.04555,0.87
0,430.74,36.77,52.62,-0.03927,0.46
0,810.79,36.77,49.13,-0.03456,-0.45
0,84.33,36.77,50.79,-0.03299,-0.63
0,-735.86,36.77,51.53,-0.03299,0.17
0,-368.30,33.38,48.10,-0.03142,0.81
0,361.67,33.38,43.95,-0.02827,0.29
0,751.77,33.38,41.63,-0.02513,-0.22
0,173.71,33.38,42.53,-0.02513,-0.28
0,-278.83,33.38,42.79,-0.02513,0.18
0,-488.81,33.38,42.30,-0.02356,0.49
0,-524.19,31.69,41.09,-0.02356,0.49
0,-242.41,31.69,39.03,-0.02199,0.16
0,20.34,31.69,37.28,-0.02042,-0.02
0,355.09,31.69,35.54,-0.01885,-0.16
0,559.49,31.69,34.47,-0.01728,-0.18
0,580.19,90.85,34.83,-0.01728,-0.10
0,810.79,90.85,37.32,-0.01728,0.13
0,810.79,90.85,43.61,-0.02042,0.49
0,810.79,90.85,51.97,-0.02670,0.25
0,48.73,90.85,61.19,-0.03456,0.69
0,-663.06,90.85,66.76,-0.03927,0.91
0,-272.14,60.42,66.78,-0.04398,0.44
0,-94.81,60.42,65.37,-0.04712,-0.21
0,331.64,60.42,63.36,-0.04712,-1.10
0,694.03,60.42,61.95,-0.04555,-0.54
0,409.84,60.42,62.72,-0.04712,-0.37
0,270.60,60.42,62.84,-0.04712,-0.09
0,810.79,105.22,63.26,-0.04712,-0.05
0,810.79,105.22,66.71,-0.04869,0.06
0,810.79,105.22,72.47,-0.05184,0.06
0,685.73,105.22,79.46,-0.05655,0.48
0,-208.35,105.22,85.33,-0.06126,0.53
0,-194.52,67.60,87.51,-0.06597,0.56
0,-645.12,67.60,86.31,-0.07069,0.31
0,-81.70,67.60,82.06,-0.07383,0.02
0,810.79,67.60,77.46,-0.07069,-0.74
0,598.32,67.60,77.27,-0.07069,-0.92
0,-143.39,67.60,78.37,-0.07069,-0.24
0,55.85,108.81,77.87,-0.07069,-0.02
0,810.79,108.81,77.92,-0.07069,-0.13
0,810.79,108.81,81.66,-0.07383,0.05
0,571.25,108.81,87.63,-0.07697,0.33
0,-42.32,108.81,91.69,-0.08011,0.48
0,338.17,108.81,92.67,-0.08168,0.47
0,221.47,69.40,92.12,-0.08639,0.04
0,-309.51,69.40,90.96,-0.08796,-0.19
0,-429.52,69.40,88.62,-0.08639,-0.60
0,-177.99,69.40,85.40,-0.08482,-0.34
0,307.41,69.40,81.94,-0.08168,-0.34
0,691.49,69.40,79.30,-0.07697,-0.33
0,-235.17,49.70,79.05,-0.07697,-0.23
0,-810.79,49.70,77.65,-0.07540,-0.05
0,-143.48,49.70,71.24,-0.06597,-0.11
0,810.79,49.70,65.19,-0.05655,-0.87
0,581.60,49.70,64.86,-0.05341,-1.30
0,-294.20,39.84,65.56,-0.05184,-0.54
0,-810.79,39.84,63.84,-0.05027,1.20
0,21.80,39.84,58.03,-0.04555,0.81
0,810.79,39.84,53.13,-0.03927,-0.30
0,330.21,39.84,53.63,-0.03770,-0.78
0,-479.80,39.84,54.46,-0.03770,0.21
0,299.24,94.93,53.06,-0.03613,0.94
0,810.79,94.93,53.20,-0.03613,0.37
0,810.79,94.93,57.70,-0.03770,0.24
0,810.79,94.93,64.65,-0.04398,0.48
0,207.16,94.93,72.60,-0.05027,1.12
0,-624.19,94.93,77.73,-0.05655,0.79
0,748.54,122.47,77.78,-0.06126,0.79
0,810.79,122.47,78.55,-0.06597,0.12
0,810.79,122.47,82.17,-0.07069,-0.25
0,810.79,122.47,87.68,-0.07540,-0.13
0,810.79,122.47,94.14,-0.08168,0.14
0,698.64,76.23,101.89,-0.08954,0.40
0,-810.79,76.23,106.30,-0.09896,0.38
0,-810.79,76.23,102.24,-0.10524,0.28
0,52.25,76.23,92.63,-0.09896,-0.42
0,810.79,76.23,84.76,-0.08639,-1.93
0,810.79,76.23,83.78,-0.08325,-1.37
0,810.79,113.12,87.62,-0.08482,-0.46
0,307.16,113.12,93.51,-0.09111,1.08
0,-144.87,113.12,97.20,-0.09739,1.00
0,204.52,113.12,97.89,-0.10053,0.29
0,810.79,113.12,97.81,-0.10053,-0.39
0,665.74,113.12,100.40,-0.10210,-0.12
0,-637.54,71.56,102.66,-0.10681,0.16
0,-810.79,71.56,99.21,-0.10524,-0.12
0,404.45,71.56,91.55,-0.09896,-0.58
0,810.79,71.56,86.89,-0.08796,-0.58
0,403.62,71.56,87.90,-0.08954,-0.71
0,-632.48,71.56,89.09,-0.08954,-0.13
0,-810.79,50.78,85.50,-0.08796,0.57
0,12.30,50.78,77.75,-0.07697,-0.03
0,810.79,50.78,71.20,-0.06597,-1.02
0,526.22,50.78,70.89,-0.06126,-1.74
0,-577.57,50.78,71.85,-0.06126,-0.52
0,-159.93,100.39,68.84,-0.05812,1.47
0,810.79,100.39,65.89,-0.05498,1.17
0,810.79,100.39,68.29,-0.05655,0.36
0,810.79,100.39,74.09,-0.05969,0.46
0,810.79,100.39,81.52,-0.06754,0.81
0,-482.85,100.39,88.18,-0.07383,1.06
0,-810.79,65.19,88.59,-0.08011,0.59
0,-12.99,65.19,82.33,-0.07854,-0.55
0,810.79,65.19,76.72,-0.07226,-1.38
0,754.65,65.19,76.93,-0.07069,-0.65
0,-383.68,65.19,79.08,-0.07226,0.24
0,-653.40,65.19,78.03,-0.07069,0.24
0,-425.21,47.59,74.04,-0.06912,-0.00
0,-91.92,47.59,69.68,-0.06283,-0.13
0,364.55,47.59,65.51,-0.05655,-0.59
0,622.26,47.59,62.59,-0.05027,-1.04
0,335.55,47.59,61.74,-0.04869,-0.84
0,55.79,98.80,61.23,-0.04555,0.16
0,810.79,98.80,61.94,-0.04555,1.22
0,810.79,98.80,66.16,-0.04869,0.71
0,737.66,98.80,72.73,-0.05341,0.59
0,-86.77,98.80,78.39,-0.05969,0.79
0,36.51,98.80,80.32,-0.06283,0.78
0,309.98,64.40,80.16,-0.06754,0.15
0,-5.86,64.40,79.18,-0.06912,-0.35
0,-27.77,64.40,77.39,-0.06754,-0.81
0,169.27,64.40,75.13,-0.06597,-0.37
0,492.72,64.40,72.78,-0.06440,-0.24
0,534.81,64.40,71.75,-0.06283,-0.16
0,810.79,107.21,72.43,-0.06283,0.03
0,810.79,107.21,76.48,-0.06597,0.03
0,467.21,107.21,82.93,-0.07069,0.10
0,-37.35,107.21,87.35,-0.07540,0.57
0,366.49,107.21,88.31,-0.07854,0.61
0,810.79,107.21,88.76,-0.08168,0.34
0,-248.25,68.60,90.41,-0.08482,-0.09
0,-695.11,68.60,88.92,-0.08482,-0.26
0,-25.72,68.60,84.18,-0.08168,-0.68
0,810.79,68.60,79.66,-0.07697,-0.50
0,496.60,68.60,79.58,-0.07540,-0.39
0,290.63,109.31,80.07,-0.07540,0.06
0,810.79,109.31,81.13,-0.07540,0.08
0,810.79,109.31,85.56,-0.07854,0.26
0,187.06,109.31,90.64,-0.08482,0.32
0,329.91,109.31,92.29,-0.08796,0.61
0,810.79,109.31,92.65,-0.08954,0.11
0,810.79,129.66,95.32,-0.09268,-0.19
0,810.79,129.66,100.13,-0.09896,0.34
0,458.38,129.66,105.53,-0.10681,0.62
0,310.39,129.66,108.76,-0.11310,0.62
0,810.79,129.66,109.54,-0.11938,0.52
0,810.79,129.66,112.12,-0.12252,0.04
0,533.07,139.84,116.27,-0.12723,-0.43
0,651.65,139.84,118.69,-0.13195,-0.17
0,714.77,139.84,121.23,-0.13509,-0.20
0,425.69,139.84,124.34,-0.13980,0.06
0,701.98,139.84,125.28,-0.14294,-0.00
0,471.51,84.91,127.28,-0.14451,-0.33
0,-810.79,84.91,127.73,-0.14608,-0.26
0,-810.79,84.91,121.56,-0.14451,-0.42
0,376.15,84.91,111.67,-0.13195,-0.41
0,810.79,84.91,105.08,-0.12095,-0.57
0,810.79,84.91,104.91,-0.11938,-0.46
0,-80.34,117.46,107.30,-0.12095,0.20
0,128.44,117.46,107.76,-0.12095,0.53
0,692.10,117.46,107.15,-0.12095,0.13
0,615.42,117.46,108.84,-0.12095,0.07
0,339.41,117.46,110.67,-0.12252,0.08
0,600.55,117.46,110.61,-0.12252,0.08
0,-252.34,73.73,110.65,-0.12409,-0.00
0,-810.79,73.73,108.14,-0.12252,0.01
0,-89.08,73.73,100.81,-0.11624,-0.10
0,810.79,73.73,94.21,-0.10367,-0.67
0,529.87,73.73,93.57,-0.10053,-1.36
0,-529.84,73.73,94.44,-0.09896,-0.76
0,-810.79,51.86,91.48,-0.09739,0.93
0,-292.43,51.86,83.00,-0.08639,0.72
0,810.79,51.86,74.99,-0.07383,-0.95
0,810.79,51.86,73.00,-0.06597,-2.03
0,-349.04,51.86,74.59,-0.06440,-0.69
0,-810.79,40.93,72.64,-0.06126,1.73
0,-45.25,40.93,66.06,-0.05655,1.51
0,810.79,40.93,60.25,-0.04869,-0.08
0,528.64,40.93,59.20,-0.04555,-0.68
0,-256.24,40.93,59.42,-0.04398,-0.13
0,-662.54,40.93,58.33,-0.04241,0.98
0,-388.02,35.46,54.83,-0.04084,0.54
0,-41.41,35.46,51.44,-0.03613,0.54
0,411.01,35.46,48.05,-0.03299,-0.11
0,600.88,35.46,46.05,-0.02985,-0.60
0,218.45,35.46,46.00,-0.02827,-0.52
0,-89.58,35.46,45.67,-0.02670,0.22
0,810.79,92.74,45.71,-0.02670,0.89
0,810.79,92.74,49.51,-0.02827,0.40
0,810.79,92.74,56.27,-0.03142,0.32
0,473.11,92.74,64.44,-0.04084,0.85
0,-406.19,92.74,70.55,-0.04555,0.95
0,-196.62,121.38,72.68,-0.05184,0.69
0,810.79,121.38,72.91,-0.05655,-0.03
0,810.79,121.38,75.67,-0.05969,-0.46
0,810.79,121.38,80.31,-0.06440,-0.19
0,810.79,121.38,86.78,-0.06912,0.25
0,810.79,121.38,93.91,-0.07540,0.35
0,-393.42,75.68,101.86,-0.08482,0.60
0,-810.79,75.68,103.55,-0.09268,0.38
0,-810.79,75.68,97.22,-0.09896,-0.23
0,810.79,75.68,87.23,-0.09111,-0.23
0,810.79,75.68,81.72,-0.08168,-1.84
0,810.79,75.68,82.68,-0.08011,-1.36
0,810.79,112.85,87.62,-0.08325,-0.59
0,180.33,112.85,93.84,-0.09111,1.01
0,-245.87,112.85,97.35,-0.09739,1.14
0,166.96,112.85,97.79,-0.09896,0.50
0,810.79,112.85,97.36,-0.09896,-0.43
0,770.55,71.42,99.85,-0.10053,-0.49
0,-810.79,71.42,101.80,-0.10524,0.05
0,-740.75,71.42,96.72,-0.10210,-0.04
0,759.74,71.42,88.84,-0.09268,-0.49
0,810.79,71.42,85.37,-0.08639,-0.76
0,216.29,71.42,87.32,-0.08639,-0.34
0,-361.26,110.72,88.52,-0.08796,0.61
0,605.72,110.72,88.11,-0.08639,0.29
0,810.79,110.72,89.61,-0.08796,0.08
0,553.23,110.72,94.00,-0.09111,0.35
0,113.90,110.72,97.29,-0.09739,0.33
0,454.67,110.72,97.72,-0.09896,0.33
0,810.79,130.37,98.10,-0.09896,0.00
0,810.79,130.37,101.37,-0.10367,-0.20
0,810.79,130.37,106.25,-0.10996,0.21
0,180.04,130.37,112.31,-0.11781,0.65
0,-236.36,130.37,115.68,-0.12566,0.84
0,184.22,130.37,115.98,-0.12881,0.40
0,-558.02,80.18,114.85,-0.13038,-0.59
0,-673.55,80.18,110.60,-0.12723,-1.04
0,304.44,80.18,103.69,-0.11781,-0.57
0,810.79,80.18,99.00,-0.10996,-0.43
0,104.60,80.18,99.59,-0.10996,-0.39
0,-770.11,55.08,99.44,-0.10996,-0.00
0,-810.79,55.08,94.85,-0.10524,0.23
0,-51.25,55.08,86.15,-0.09268,-0.73
0,810.79,55.08,78.53,-0.08011,-2.02
0,692.81,55.08,77.76,-0.07226,-2.00
0,-524.69,55.08,78.79,-0.06912,0.78
0,-810.79,42.54,75.77,-0.06754,2.41
0,85.88,42.54,68.79,-0.05969,2.41
0,810.79,42.54,63.16,-0.05184,0.72
0,271.96,42.54,62.78,-0.05027,-0.48
0,-529.72,42.54,62.82,-0.04869,-0.61
0,-595.23,42.54,60.27,-0.04555,0.55
0,4.72,36.27,55.55,-0.04084,0.77
0,536.67,36.27,51.56,-0.03613,-0.05
0,520.13,36.27,49.91,-0.03299,-0.51
0,17.66,36.27,49.87,-0.03142,-0.33
0,-498.13,36.27,49.85,-0.03142,0.46
0,-599.89,33.13,48.28,-0.02985,0.91
0,-72.10,33.13,44.69,-0.02827,0.19
0,559.84,33.13,41.27,-0.02513,-0.18
0,581.74,33.13,40.42,-0.02356,-0.34
0,141.72,33.13,40.89,-0.02199,0.01
0,-106.13,33.13,40.72,-0.02199,0.40
0,533.78,91.57,40.23,-0.02199,0.30
0,810.79,91.57,42.09,-0.02199,0.19
0,810.79,91.57,47.87,-0.02513,0.16
0,810.79,91.57,55.71,-0.02985,0.16
0,48.26,91.57,64.53,-0.03770,0.58
0,-645.34,91.57,69.80,-0.04398,1.00
0,810.79,120.79,69.94,-0.04869,0.68
0,810.79,120.79,71.45,-0.05341,0.11
0,810.79,120.79,75.53,-0.05812,-0.45
0,810.79,120.79,81.07,-0.06283,-0.30
0,810.79,120.79,88.19,-0.06754,0.23
0,810.79,120.79,95.84,-0.07540,0.33
0,232.99,135.40,103.93,-0.08482,0.60
0,-153.70,135.40,108.84,-0.09425,0.62
0,261.53,135.40,110.57,-0.10524,0.35
0,810.79,135.40,110.67,-0.11467,0.05
0,810.79,135.40,113.27,-0.12409,-0.11
0,800.63,142.71,118.27,-0.13038,-0.56
0,150.78,142.71,123.27,-0.13823,-0.43
0,44.72,142.71,125.83,-0.14294,-0.38
0,605.10,142.71,126.03,-0.14451,-0.74
0,810.79,142.71,127.54,-0.14451,-0.79
0,365.25,142.71,130.82,-0.14765,-0.79
0,440.05,146.36,132.11,-0.15080,-0.13
0,810.79,146.36,132.15,-0.15080,0.05
0,605.76,146.36,135.32,-0.15394,-0.20
0,76.42,146.36,138.24,-0.15708,-0.01
0,228.71,146.36,138.62,-0.15708,0.08
0,687.02,146.36,138.14,-0.15708,-0.07
0,618.05,148.19,139.66,-0.15865,-0.27
0,465.08,148.19,141.12,-0.16022,-0.03
0,677.37,148.19,141.28,-0.16022,0.05
0,596.06,148.19,142.49,-0.16179,-0.03
0,444.46,148.19,143.59,-0.16179,0.04
0,608.53,149.10,143.64,-0.16179,-0.00
0,600.14,149.10,144.37,-0.16336,-0.03
0,525.84,149.10,145.18,-0.16336,-0.00
0,620.46,149.10,145.32,-0.16493,0.04
0,660.83,149.10,145.70,-0.16493,-0.02
0,443.35,149.10,146.88,-0.16650,-0.03
0,327.15,149.56,147.47,-0.16650,0.03
0,413.18,149.56,147.45,-0.16650,0.03
0,489.54,149.56,147.45,-0.16650,-0.03
0,553.75,149.56,147.51,-0.16808,-0.04
0,552.88,149.56,147.76,-0.16808,-0.02
0,607.81,149.56,147.80,-0.16808,0.02
0,594.13,149.79,148.11,-0.16808,-0.01
0,512.49,149.79,148.56,-0.16808,0.01
0,551.99,149.79,148.57,-0.16808,0.00
0,559.71,149.79,148.72,-0.16808,0.04
0,499.04,149.79,149.03,-0.16808,-0.02
0,530.16,149.79,149.02,-0.16808,-0.06
0,560.45,149.90,149.03,-0.16808,-0.03
0,565.85,149.90,149.12,-0.16965,-0.03
0,582.79,149.90,149.16,-0.16965,-0.03
0,584.39,149.90,149.25,-0.16965,-0.03
0,569.53,149.90,149.38,-0.16965,-0.01
0,567.17,149.96,149.45,-0.16965,-0.01
0,554.49,149.96,149.56,-0.16965,-0.01
0,550.74,149.96,149.61,-0.16965,-0.01
0,560.87,149.96,149.62,-0.16965,-0.01
0,556.44,149.96,149.68,-0.16965,-0.00
0,561.80,149.96,149.69,-0.16965,-0.00
0,565.24,149.99,149.72,-0.16965,-0.00
0,558.86,149.99,149.77,-0.16965,0.01
0,562.86,149.99,149.78,-0.16965,0.01
0,566.56,149.99,149.79,-0.16965,0.01
0,562.41,149.99,149.83,-0.16965,0.01
0,558.81,149.99,149.86,-0.16965,0.00
0,559.81,150.00,149.88,-0.16965,0.01
0,559.42,150.00,149.89,-0.16965,0.01
0,556.28,150.00,149.92,-0.16965,0.03
0,553.18,150.00,149.94,-0.16965,0.02
0,553.55,150.00,149.95,-0.16965,0.04
0,323.72,90.00,149.95,-0.16965,0.04
0,-810.79,90.00,148.49,-0.16965,-0.02
0,-810.79,90.00,141.53,-0.16808,-0.07
0,-436.07,90.00,130.51,-0.16179,-0.10
0,810.79,90.00,119.64,-0.14294,-0.82
0,810.79,90.00,116.14,-0.13980,-0.67
0,450.90,120.01,118.31,-0.13823,-0.09
0,-198.68,120.01,120.47,-0.13980,-0.09
0,-328.96,120.01,120.78,-0.14137,0.66
0,-228.52,120.01,120.34,-0.13980,0.37
0,41.20,120.01,119.40,-0.13980,0.24
0,395.66,120.01,118.33,-0.13980,0.10
0,810.79,135.01,118.39,-0.13980,0.04
0,446.20,135.01,122.02,-0.14137,0.10
0,56.58,135.01,124.74,-0.14294,0.07
0,282.82,135.01,125.16,-0.14451,-0.01
0,727.35,135.01,125.01,-0.14451,-0.03
0,562.18,82.50,126.87,-0.14608,0.01
0,-810.79,82.50,127.28,-0.14765,0.08
0,-810.79,82.50,121.56,-0.14451,-0.11
0,107.16,82.50,111.65,-0.13509,-0.36
0,810.79,82.50,104.11,-0.12095,-1.19
0,810.79,82.50,103.18,-0.11624,-1.19
0,-757.00,56.25,105.45,-0.11624,0.32
0,-810.79,56.25,102.46,-0.11467,1.18
0,-810.79,56.25,93.91,-0.10524,0.01
0,803.70,56.25,83.43,-0.08796,0.01
0,810.79,56.25,77.70,-0.07697,-1.69
0,686.89,56.25,78.48,-0.07069,-2.52
0,-810.79,43.12,79.96,-0.07069,-0.46
0,-810.79,43.12,75.16,-0.06754,2.52
0,426.66,43.12,66.36,-0.05812,1.72
0,810.79,43.12,61.21,-0.04869,0.04
0,462.11,43.12,61.86,-0.04712,-0.76
0,-709.98,43.12,63.19,-0.04712,0.02
0,-722.64,36.55,59.63,-0.04398,1.16
0,449.91,36.55,53.00,-0.03927,0.40
0,810.79,36.55,49.80,-0.03456,-0.58
0,76.39,36.55,51.00,-0.03299,-0.68
0,-616.76,36.55,51.35,-0.03299,0.38
0,-462.41,33.27,48.76,-0.02985,0.90
0,55.72,33.27,45.19,-0.02827,0.14
0,623.72,33.27,41.95,-0.02513,-0.35
0,439.45,33.27,41.68,-0.02356,-0.32
0,-1.16,33.27,42.00,-0.02356,0.29
0,-193.72,33.27,41.54,-0.02356,0.29
0,-398.10,31.63,41.13,-0.02199,0.55
0,-530.12,31.63,40.34,-0.02199,0.16
0,-414.98,31.63,38.87,-0.02199,0.08
0,-284.58,31.63,37.55,-0.02042,0.01
0,-16.46,31.63,35.97,-0.01885,-0.14
0,235.90,31.63,34.63,-0.01728,-0.18
0,412.08,30.81,33.64,-0.01728,-0.12
0,429.90,30.81,33.27,-0.01571,0.03
0,338.11,30.81,33.27,-0.01571,0.13
0,244.34,30.81,33.27,-0.01571,0.17
0,151.63,30.81,33.27,-0.01571,0.13
0,57.21,30.40,33.27,-0.01571,0.05
0,-52.09,30.40,33.26,-0.01571,0.05
0,-156.23,30.40,33.25,-0.01571,0.03
0,-234.06,30.40,33.14,-0.01414,0.02
0,-259.30,30.40,32.87,-0.01414,0.00
0,-171.26,30.40,32.27,-0.01414,-0.01
0,710.73,90.21,31.79,-0.01414,-0.02
0,810.79,90.21,34.14,-0.01414,-0.02
0,810.79,90.21,40.54,-0.01728,0.06
0,810.79,90.21,49.33,-0.02356,0.12
0,346.52,90.21,58.90,-0.03142,0.41
0,-726.87,90.21,65.83,-0.03770,1.18
0,-550.94,60.10,65.46,-0.04241,0.85
0,274.07,60.10,62.09,-0.04398,0.13
0,810.79,60.10,60.03,-0.04398,-1.17
0,276.10,60.10,62.18,-0.04398,-0.70
0,-139.38,60.10,63.15,-0.04555,-0.36
0,-181.16,60.10,62.88,-0.04555,-0.12
0,810.79,105.06,62.91,-0.04555,-0.17
0,810.79,105.06,66.27,-0.04712,0.07
0,810.79,105.06,71.93,-0.05027,0.38
0,810.79,105.06,78.69,-0.05498,0.65
0,-134.72,105.06,85.31,-0.05969,0.67
0,-740.21,67.52,88.25,-0.06754,0.51
0,-522.78,67.52,84.56,-0.07069,0.15
0,810.79,67.52,78.06,-0.07069,-0.98
0,810.79,67.52,76.00,-0.06912,-0.98
0,192.45,67.52,78.40,-0.06912,-1.09
0,-654.04,67.52,79.61,-0.07069,-0.20
0,443.03,108.77,76.96,-0.06912,-0.04
0,810.79,108.77,76.27,-0.06754,-0.30
0,810.79,108.77,79.90,-0.06912,0.05
0,810.79,108.77,85.71,-0.07540,0.20
0,257.95,108.77,92.20,-0.08011,0.69
0,-415.02,108.77,96.45,-0.08639,0.70
0,427.93,129.39,97.09,-0.09111,0.41
0,810.79,129.39,97.47,-0.09425,-0.04
0,810.79,129.39,100.47,-0.09896,-0.27
0,810.79,129.39,105.43,-0.10367,-0.00
0,572.77,129.39,111.56,-0.11153,0.43
0,-322.29,139.70,116.55,-0.11938,0.55
0,-3.59,139.70,118.19,-0.12566,0.18
0,810.79,139.70,118.06,-0.13195,-0.19
0,810.79,139.70,120.13,-0.13509,-0.69
0,421.89,139.70,124.80,-0.13980,-0.24
0,-3.55,139.70,127.81,-0.14451,-0.24
0,346.92,144.86,128.20,-0.14608,0.07
0,810.79,144.86,128.32,-0.14608,-0.44
0,709.02,144.86,131.41,-0.14765,-0.68
0,242.72,144.86,134.45,-0.15080,-0.16
0,320.27,144.86,135.35,-0.15237,0.27
0,701.35,144.86,135.33,-0.15394,0.24
0,-648.85,87.43,136.21,-0.15551,0.05
0,-810.79,87.43,132.53,-0.15551,-0.02
0,-512.56,87.43,123.44,-0.15080,-0.55
0,810.79,87.43,113.65,-0.13666,-0.77
0,810.79,87.43,110.26,-0.13038,-1.23
0,80.87,58.71,111.69,-0.12723,-0.88
0,-810.79,58.71,110.66,-0.12723,0.62
0,-810.79,58.71,103.71,-0.12095,0.71
0,-43.16,58.71,92.59,-0.10367,-1.05
0,810.79,58.71,83.35,-0.08796,-2.95
0,810.79,58.71,81.54,-0.07697,-2.79
0,-364.95,44.35,83.76,-0.07383,1.17
0,-810.79,44.35,81.42,-0.07383,3.89
0,-303.75,44.35,73.36,-0.06597,1.24
0,810.79,44.35,65.19,-0.05655,1.24
0,810.79,44.35,63.30,-0.05184,-0.39
0,-203.36,44.35,65.30,-0.05027,-0.98
0,230.14,97.18,65.43,-0.04869,0.55
0,810.79,97.18,66.04,-0.04869,1.43
0,810.79,97.18,70.08,-0.05184,0.73
0,490.46,97.18,76.10,-0.05812,0.42
0,28.68,97.18,79.97,-0.06126,0.85
0,334.95,97.18,80.93,-0.06597,0.67
0,-6.36,63.59,80.05,-0.06912,0.13
0,-108.80,63.59,78.31,-0.06912,-0.58
0,50.34,63.59,75.95,-0.06754,-0.66
0,378.70,63.59,73.36,-0.06440,-0.39
0,621.50,63.59,71.48,-0.06283,-0.25
0,220.11,46.79,71.32,-0.06283,-0.15
0,-618.91,46.79,70.98,-0.06126,0.07
0,-564.67,46.79,67.51,-0.05812,-0.02
0,235.28,46.79,62.38,-0.05184,-0.74
0,810.79,46.79,58.69,-0.04555,-1.51
0,151.99,46.79,59.62,-0.04241,-1.51
0,630.98,98.40,59.70,-0.04241,-0.39
0,810.79,98.40,61.53,-0.04241,1.55
0,810.79,98.40,66.46,-0.04555,1.01
0,697.18,98.40,73.22,-0.05184,0.67
0,-158.08,98.40,78.89,-0.05655,0.76
0,-53.06,98.40,80.76,-0.06126,0.58
0,-328.68,64.20,80.36,-0.06597,0.17
0,-409.95,64.20,78.54,-0.06754,-0.12
0,-91.34,64.20,75.70,-0.06597,-0.85
0,462.13,64.20,72.49,-0.06440,-0.62
0,672.04,64.20,71.02,-0.06126,-0.44
0,353.87,107.11,71.69,-0.06126,-0.03
0,810.79,107.11,73.02,-0.06283,0.02
0,810.79,107.11,77.75,-0.06597,0.20
0,402.76,107.11,84.10,-0.06912,0.61
0,-52.76,107.11,88.18,-0.07383,0.61
0,387.25,107.11,88.94,-0.07697,0.36
0,427.70,68.55,89.21,-0.08011,-0.07
0,-198.42,68.55,88.61,-0.08325,-0.07
0,-397.02,68.55,86.81,-0.08168,-0.29
0,-231.91,68.55,83.97,-0.08011,-0.76
0,192.81,68.55,80.68,-0.07854,-0.38
0,653.57,68.55,77.78,-0.07383,-0.39
0,-21.21,49.27,77.38,-0.07226,-0.43
0,-810.79,49.27,76.48,-0.07069,-0.08
0,-303.46,49.27,71.07,-0.06440,0.12
0,760.33,49.27,65.05,-0.05655,-0.66
0,597.61,49.27,63.97,-0.05184,-1.60
0,-147.99,49.27,64.50,-0.04869,-0.63
0,-810.79,39.63,63.50,-0.04712,1.42
0,-157.52,39.63,58.22,-0.04398,0.94
0,810.79,39.63,52.93,-0.03927,-0.23
0,516.01,39.63,52.58,-0.03613,-0.71
0,-321.32,39.63,53.61,-0.03456,0.40
0,-164.30,94.82,52.96,-0.03456,0.92
0,810.79,94.82,52.48,-0.03456,0.21
0,810.79,94.82,56.28,-0.03613,0.26
0,810.79,94.82,62.62,-0.03927,0.26
0,504.18,94.82,70.49,-0.04398,0.60
0,-490.62,94.82,76.47,-0.05027,1.03
0,-772.38,62.41,77.02,-0.05655,0.67
0,69.59,62.41,72.35,-0.05812,0.07
0,810.79,62.41,68.21,-0.05655,-0.99
0,518.75,62.41,69.45,-0.05655,-1.06
0,-328.40,62.41,71.19,-0.05655,-0.09
0,-560.55,62.41,70.73,-0.05655,0.03
0,-557.60,46.20,67.84,-0.05655,-0.23
0,-107.72,46.20,63.70,-0.05184,-0.11
0,476.01,46.20,59.69,-0.04712,-0.50
0,640.11,46.20,57.72,-0.04398,-0.96
0,178.59,46.20,57.78,-0.04084,-0.31
0,119.84,98.11,57.50,-0.04084,0.93
0,810.79,98.11,58.57,-0.04084,0.56
0,810.79,98.11,63.12,-0.04398,0.34
0,810.79,98.11,69.81,-0.04712,0.87
0,-62.70,98.11,76.10,-0.05184,0.82
0,-79.59,98.11,78.59,-0.05655,0.82
0,810.79,124.06,78.62,-0.06126,0.62
0,810.79,124.06,80.48,-0.06597,0.08
0,810.79,124.06,84.73,-0.07226,-0.19
0,810.79,124.06,90.60,-0.07854,0.13
0,810.79,124.06,97.31,-0.08482,0.45
0,196.99,124.06,104.94,-0.09268,0.46
0,-810.79,77.03,108.50,-0.10053,0.41
0,-810.79,77.03,104.04,-0.10681,0.09
0,361.64,77.03,94.34,-0.10210,-0.72
0,810.79,77.03,87.91,-0.09268,-2.30
0,810.79,77.03,87.68,-0.08796,-2.23
0,117.34,53.51,91.25,-0.08954,-0.19
0,-810.79,53.51,91.49,-0.08954,1.56
0,-810.79,53.51,84.73,-0.08639,0.10
0,703.21,53.51,75.34,-0.07383,-1.21
0,810.79,53.51,70.31,-0.06440,-2.39
0,801.68,53.51,71.01,-0.05812,-0.87
0,30.85,101.76,73.00,-0.05812,2.22
0,810.79,101.76,72.96,-0.05812,2.22
0,810.79,101.76,75.23,-0.06126,2.13
0,810.79,101.76,80.01,-0.06597,0.80
0,173.27,101.76,85.66,-0.07069,0.52
0,-121.77,101.76,88.38,-0.07540,0.74
0,810.79,125.89,88.18,-0.08011,0.54
0,810.79,125.89,89.83,-0.08325,-0.11
0,810.79,125.89,93.50,-0.08639,-0.34
0,810.79,125.89,99.20,-0.09111,0.06
0,605.14,125.89,105.77,-0.09739,0.35
0,-278.71,125.89,111.20,-0.10367,0.55
0,23.87,137.95,113.08,-0.10996,0.47
0,810.79,137.95,113.02,-0.11467,-0.26
0,810.79,137.95,115.22,-0.11938,-0.47
0,810.79,137.95,119.51,-0.12566,-0.20
0,40.93,137.95,124.41,-0.13352,0.36
0,-427.97,83.97,126.43,-0.13823,0.20
0,-810.79,83.97,123.73,-0.14294,-0.06
0,-371.44,83.97,115.37,-0.13823,-1.37
0,810.79,83.97,106.91,-0.12566,-1.37
0,810.79,83.97,104.54,-0.11781,-1.78
0,-175.74,83.97,106.25,-0.11624,-1.87
0,-313.32,116.99,105.59,-0.11624,0.18
0,788.62,116.99,103.46,-0.11467,1.51
0,810.79,116.99,104.60,-0.11467,0.43
0,293.67,116.99,108.55,-0.11781,0.23
0,-61.56,116.99,110.57,-0.11938,0.48
0,331.37,116.99,110.00,-0.12095,0.23
0,810.79,133.50,109.86,-0.12095,-0.18
0,810.79,133.50,113.07,-0.12252,-0.07
0,373.14,133.50,118.03,-0.12723,0.49
0,125.35,133.50,120.55,-0.13195,0.91
0,514.18,133.50,120.79,-0.13666,0.32
0,810.79,141.76,121.56,-0.13823,-0.43
0,591.70,141.76,124.90,-0.14137,-0.40
0,382.25,141.76,127.50,-0.14451,0.18
0,737.17,141.76,128.05,-0.14608,0.04
0,707.01,141.76,130.01,-0.14765,-0.34
0,410.09,141.76,132.26,-0.15080,-0.34
0,-68.28,85.88,132.79,-0.15237,-0.10
0,-810.79,85.88,130.80,-0.15237,0.06
0,-782.90,85.88,123.09,-0.14923,-0.38
0,774.08,85.88,113.57,-0.13666,-0.56
0,810.79,85.88,108.59,-0.12881,-1.36
0,295.34,85.88,109.58,-0.12409,-1.36
0,-179.11,117.95,110.43,-0.12409,0.13
0,372.34,117.95,109.53,-0.12252,1.50
0,810.79,117.95,109.22,-0.12252,0.69
0,417.89,117.95,111.69,-0.12409,0.13
0,340.76,117.95,112.57,-0.12409,0.19
0,618.56,117.95,112.35,-0.12409,0.05
0,-625.55,73.97,112.12,-0.12409,-0.04
0,-810.79,73.97,107.84,-0.12252,-0.11
0,199.58,73.97,100.11,-0.11310,-0.61
0,810.79,73.97,94.30,-0.10524,-1.73
0,360.76,73.97,94.44,-0.09896,-1.50
0,-681.89,51.98,94.62,-0.09739,1.07
0,-810.79,51.98,90.65,-0.09425,1.07
0,103.53,51.98,81.55,-0.08325,1.56
0,810.79,51.98,74.81,-0.07383,-0.84
0,568.45,51.98,74.27,-0.06440,-2.35
0,-487.94,51.98,74.80,-0.06126,-1.08
0,-747.47,40.99,71.83,-0.05969,2.42
0,63.05,40.99,65.34,-0.05498,1.56
0,810.79,40.99,59.98,-0.04869,-0.17
0,387.26,40.99,59.39,-0.04398,-1.13
0,-329.81,40.99,59.36,-0.04241,-0.21
0,-638.27,40.99,57.97,-0.04084,1.24
0,-361.18,35.49,54.35,-0.03770,0.66
0,30.22,35.49,50.79,-0.03613,-0.05
0,543.90,35.49,47.29,-0.03142,-0.59
0,539.22,35.49,46.03,-0.02827,-0.63
0,173.75,35.49,45.89,-0.02670,0.30
0,76.68,92.75,45.64,-0.02513,0.99
0,810.79,92.75,46.79,-0.02513,0.36
0,810.79,92.75,51.46,-0.02827,0.34
0,810.79,92.75,58.29,-0.03142,0.34
0,333.57,92.75,66.05,-0.03770,0.94
0,-417.73,92.75,71.57,-0.04241,0.94
0,-660.22,61.37,73.14,-0.04869,0.79
0,-246.09,61.37,70.15,-0.05184,0.07
0,693.85,61.37,66.05,-0.05184,-0.45
0,780.61,61.37,65.52,-0.05027,-1.42
0,39.00,61.37,67.35,-0.05027,-0.33
0,-187.28,61.37,67.24,-0.05027,-0.18
0,810.79,105.69,66.43,-0.05027,-0.04
0,810.79,105.69,68.56,-0.05184,-0.12
0,810.79,105.69,73.40,-0.05498,0.26
0,810.79,105.69,79.45,-0.05812,0.58
0,126.93,105.69,86.36,-0.06126,0.68
0,-403.40,127.85,90.22,-0.06754,0.55
0,810.79,127.85,90.65,-0.07226,0.28
0,810.79,127.85,91.98,-0.07697,-0.11
0,810.79,127.85,95.39,-0.08168,-0.17
0,810.79,127.85,100.85,-0.08796,0.18
0,810.79,127.85,107.03,-0.09268,0.18
0,-111.99,138.93,113.38,-0.10053,0.26
0,-55.71,138.93,116.14,-0.10838,0.35
0,810.79,138.93,116.07,-0.11467,0.22
0,810.79,138.93,117.50,-0.11938,-0.09
0,810.79,138.93,121.20,-0.12566,-0.31
0,118.79,138.93,126.21,-0.13195,-0.27
0,-50.95,144.47,128.55,-0.13666,0.02
0,606.08,144.47,128.31,-0.14137,-0.05
0,810.79,144.47,129.42,-0.14608,-0.34
0,510.56,144.47,132.68,-0.14765,-0.67
0,265.60,144.47,134.78,-0.14923,-0.30
0,611.46,144.47,134.81,-0.15237,-0.12
0,730.23,147.24,136.08,-0.15237,-0.12
0,399.08,147.24,138.46,-0.15551,0.01
0,580.85,147.24,138.86,-0.15708,0.01
0,700.13,147.24,139.62,-0.15865,-0.13
0,436.04,147.24,141.37,-0.16022,-0.19
0,141.47,88.62,141.52,-0.16022,-0.03
0,-810.79,88.62,139.71,-0.16022,-0.03
0,-810.79,88.62,132.14,-0.15708,-0.15
0,490.98,88.62,121.46,-0.14765,-0.32
0,810.79,88.62,114.96,-0.13666,-1.14
0,623.41,88.62,114.56,-0.13195,-1.81
0,-810.79,59.30,115.11,-0.12881,-0.56
0,-810.79,59.30,110.02,-0.12566,1.61
0,-810.79,59.30,100.12,-0.11624,0.59
0,810.79,59.30,88.68,-0.10053,-1.55
0,810.79,59.30,83.95,-0.08168,-3.53
0,494.78,59.30,84.92,-0.07383,-2.33
0,-810.79,44.65,84.97,-0.07226,2.97
0,-741.83,44.65,78.48,-0.07069,3.88
0,726.75,44.65,69.62,-0.06283,0.55
0,810.79,44.65,65.34,-0.05498,-1.73
0,76.95,44.65,66.73,-0.05027,-1.39
0,-810.79,37.32,66.80,-0.04869,1.69
0,-463.35,37.32,61.39,-0.04555,1.43
0,810.79,37.32,54.33,-0.03927,-0.27
0,810.79,37.32,52.35,-0.03456,-1.26
0,-201.57,37.32,54.16,-0.03299,0.07
0,-722.33,37.32,53.60,-0.03299,0.07
0,-292.40,33.66,49.96,-0.02985,1.49
0,417.89,33.66,45.67,-0.02670,0.37
0,709.83,33.66,43.50,-0.02513,-0.30
0,132.33,33.66,44.16,-0.02356,-0.55
0,-262.21,33.66,44.11,-0.02356,0.29
0,-493.80,33.66,43.53,-0.02199,0.66
0,-499.92,31.82,42.12,-0.02199,0.22
0,-302.33,31.82,40.20,-0.02042,0.02
0,-11.11,31.82,38.56,-0.01885,-0.10
0,192.90,31.82,36.78,-0.01728,-0.25
0,444.09,31.82,35.39,-0.01571,-0.17
0,493.54,30.91,34.87,-0.01571,0.04
0,295.75,30.91,35.02,-0.01414,0.29
0,129.57,30.91,35.04,-0.01414,0.22
0,-28.00,30.91,35.04,-0.01414,0.10
0,-184.59,30.91,35.04,-0.01414,0.08
0,-342.05,30.91,35.04,-0.01414,0.04
0,-503.69,30.45,35.03,-0.01414,0.03
0,-503.83,30.45,34.42,-0.01414,0.03
0,-217.41,30.45,32.99,-0.01414,-0.01
0,155.03,30.45,31.48,-0.01257,-0.01
0,516.82,30.45,30.21,-0.01257,-0.06
0,570.49,30.45,30.17,-0.01100,-0.09
0,362.06,30.22,30.84,-0.01100,0.04
0,280.58,30.22,31.00,-0.01100,0.08
0,251.93,30.22,31.00,-0.01100,0.05
0,222.31,30.22,31.00,-0.01100,0.02
0,192.70,30.22,31.00,-0.01100,0.01
0,163.09,30.22,31.00,-0.01100,-0.01
0,129.75,30.11,31.00,-0.01100,0.00
0,95.74,30.11,31.00,-0.01100,-0.01
0,61.73,30.11,31.00,-0.01100,0.00
0,27.73,30.11,31.00,-0.01100,-0.00
0,-6.28,30.11,31.00,-0.01100,-0.00
0,302.72,90.06,31.00,-0.01100,-0.01
0,810.79,90.06,32.68,-0.01100,0.03
0,810.79,90.06,38.16,-0.01257,0.07
0,810.79,90.06,45.97,-0.01728,0.07
0,810.79,90.06,55.25,-0.02042,0.68
0,-390.37,90.06,64.21,-0.02670,0.84
0,-36.00,120.04,67.48,-0.03299,0.66
0,810.79,120.04,68.02,-0.03927,0.44
0,810.79,120.04,70.94,-0.04398,-0.14
0,810.79,120.04,75.99,-0.04869,-0.33
0,810.79,120.04,82.09,-0.05341,-0.03
0,810.79,120.04,89.59,-0.05969,0.22
0,810.79,135.02,97.36,-0.06597,0.35
0,324.63,135.02,105.63,-0.07540,0.60
0,-291.98,135.02,111.01,-0.08482,0.58
0,-10.30,135.02,112.84,-0.09425,0.33
0,810.79,135.02,112.60,-0.10210,-0.05
0,810.79,82.51,114.65,-0.10996,-0.30
0,-810.79,82.51,117.04,-0.11624,-0.44
0,-810.79,82.51,112.98,-0.12095,-0.80
0,406.85,82.51,104.07,-0.11624,-1.62
0,810.79,82.51,98.26,-0.10838,-2.15
0,810.79,82.51,98.66,-0.10367,-2.15
0,-61.09,116.26,101.01,-0.10524,-1.28
0,493.78,116.26,100.98,-0.10524,1.16
0,810.79,116.26,101.58,-0.10524,1.01
0,494.80,116.26,104.92,-0.10838,-0.05
0,324.67,116.26,106.69,-0.10996,0.36
0,778.32,116.26,106.40,-0.11153,0.54
0,810.79,133.14,108.21,-0.11310,-0.06
0,720.90,133.14,112.42,-0.11624,-0.00
0,262.09,133.14,116.28,-0.11938,0.33
0,552.58,133.14,117.28,-0.12252,0.48
0,810.79,133.14,118.11,-0.12723,0.04
0,626.51,133.14,121.11,-0.13038,-0.17
0,-810.79,81.56,122.92,-0.13509,0.04
0,-810.79,81.56,117.64,-0.13352,-0.22
0,176.11,81.56,107.81,-0.12566,-1.25
0,810.79,81.56,100.55,-0.11467,-2.55
0,810.79,81.56,99.71,-0.10524,-2.19
0,-383.31,55.78,101.94,-0.10367,1.44
0,-810.79,55.78,99.67,-0.10367,1.44
0,-737.25,55.78,91.19,-0.09896,2.32
0,810.79,55.78,81.25,-0.08639,-0.32
0,810.79,55.78,77.46,-0.07383,-2.55
0,176.74,55.78,78.86,-0.06597,-2.79
0,-810.79,42.89,78.58,-0.06597,1.50
0,-524.03,42.89,72.45,-0.06283,3.50
0,735.33,42.89,64.87,-0.05655,0.56
0,810.79,42.89,61.99,-0.05027,-1.34
0,-107.79,42.89,62.94,-0.04712,-1.28
0,-702.63,42.89,62.25,-0.04555,1.06
0,-405.75,36.44,58.07,-0.04241,1.39
0,345.95,36.44,52.99,-0.03927,0.06
0,731.55,36.44,49.92,-0.03456,-0.84
0,166.37,36.44,50.17,-0.03142,-0.62
0,-310.70,36.44,49.99,-0.02985,0.80
0,-658.82,33.22,49.32,-0.02985,1.03
0,-314.87,33.22,46.10,-0.02827,0.04
0,319.60,33.22,42.48,-0.02513,-0.18
0,725.73,33.22,40.23,-0.02199,-0.18
0,228.02,33.22,41.05,-0.02199,-0.38
0,-90.26,33.22,41.07,-0.02199,0.05
0,531.60,91.62,40.59,-0.02042,0.53
0,810.79,91.62,42.07,-0.02199,0.22
0,810.79,91.62,47.37,-0.02356,0.20
0,810.79,91.62,54.93,-0.02670,0.26
0,525.10,91.62,63.63,-0.02985,0.76
0,-573.65,91.62,70.36,-0.03613,0.89
0,454.44,120.81,71.68,-0.04241,0.57
0,810.79,120.81,72.45,-0.04555,0.20
0,810.79,120.81,75.73,-0.05027,-0.03
0,810.79,120.81,80.59,-0.05655,-0.10
0,810.79,120.81,87.16,-0.06126,0.30
0,810.79,120.81,94.36,-0.06912,0.32
0,-810.79,75.40,101.50,-0.07697,0.52
0,-810.79,75.40,100.58,-0.08325,0.18
0,-524.41,75.40,92.45,-0.08796,-0.54
0,810.79,75.40,83.31,-0.08482,-2.23
0,810.79,75.40,80.58,-0.07854,-2.23
0,810.79,52.70,82.76,-0.07697,-2.28
0,-810.79,52.70,86.64,-0.08011,-0.43
0,-810.79,52.70,83.71,-0.07854,1.44
0,-141.51,52.70,75.30,-0.07383,0.32
0,810.79,52.70,67.76,-0.06283,-1.66
0,810.79,52.70,66.55,-0.05341,-2.73
0,810.79,101.36,69.58,-0.05184,-0.83
0,541.75,101.36,74.61,-0.05341,3.07
0,511.07,101.36,77.82,-0.05655,2.57
0,810.79,101.36,79.58,-0.06440,1.21
0,588.33,101.36,83.30,-0.07069,0.32
0,425.73,101.36,85.87,-0.07383,0.15
0,810.79,125.68,87.00,-0.07854,-0.21
0,810.79,125.68,90.38,-0.08168,-0.35
0,810.79,125.68,95.23,-0.08325,-0.16
0,810.79,125.68,101.80,-0.08796,0.14
0,-5.49,125.68,107.63,-0.09268,0.34
0,-398.88,77.84,110.31,-0.09739,0.31
0,-810.79,77.84,107.91,-0.10210,0.31
0,268.29,77.84,99.85,-0.10524,-0.03
0,810.79,77.84,93.83,-0.10053,-0.60
0,810.79,77.84,93.79,-0.09896,-1.43
0,-407.44,77.84,95.98,-0.09896,-0.74
0,-165.41,113.93,94.47,-0.09739,0.44
0,810.79,113.93,92.22,-0.09582,0.06
0,810.79,113.93,94.71,-0.09739,-0.22
0,578.71,113.93,100.09,-0.10053,0.46
0,-236.51,113.93,104.21,-0.10367,0.65
0,-127.86,113.93,104.88,-0.10681,0.60
0,810.79,131.97,104.03,-0.10996,0.09
0,810.79,131.97,105.37,-0.11153,-0.49
0,810.79,131.97,109.19,-0.11310,-0.11
0,695.68,131.97,114.84,-0.11624,0.24
0,-188.27,131.97,119.29,-0.11938,0.39
0,-99.00,140.99,120.66,-0.12252,0.42
0,810.79,140.99,120.03,-0.12723,0.16
0,810.79,140.99,121.47,-0.13038,-0.16
0,810.79,140.99,125.33,-0.13509,-0.16
0,50.75,140.99,129.76,-0.13980,-0.03
0,-35.74,140.99,131.27,-0.14451,0.27
0,557.93,145.50,130.67,-0.14765,0.22
0,810.79,145.50,131.82,-0.15080,-0.20
0,392.96,145.50,134.95,-0.15394,-0.62
0,198.75,145.50,136.73,-0.15708,-0.13
0,586.99,145.50,136.51,-0.15708,0.07
0,699.99,145.50,137.40,-0.15865,-0.32
0,450.20,147.76,139.30,-0.16022,-0.38
0,678.97,147.76,139.56,-0.16022,-0.12
0,599.56,147.76,140.93,-0.16022,0.02
0,429.34,147.76,142.22,-0.16179,0.01
0,631.87,147.76,142.25,-0.16179,0.01
0,551.72,147.76,143.24,-0.16336,-0.04
0,557.91,148.89,143.84,-0.16336,-0.00
0,610.99,148.89,144.34,-0.16493,0.03
0,535.11,148.89,145.11,-0.16493,0.08
0,609.94,148.89,145.34,-0.16650,-0.04
0,538.84,148.89,145.99,-0.16650,-0.04
0,626.70,149.45,146.05,-0.16650,-0.07
0,691.35,149.45,146.34,-0.16650,-0.10
0,339.13,149.45,147.81,-0.16808,0.04
0,314.19,149.45,148.04,-0.16808,0.08
0,391.26,149.45,147.97,-0.16808,-0.01
0,447.58,149.45,147.97,-0.16965,-0.11
0,-521.27,89.72,147.97,-0.16965,-0.10
0,-810.79,89.72,144.89,-0.16808,-0.05
0,-810.79,89.72,136.29,-0.16493,-0.14
0,395.27,89.72,124.12,-0.15394,-0.44
0,810.79,89.72,115.88,-0.14137,-2.13
0,810.79,89.72,114.73,-0.13195,-2.60
0,-810.79,59.86,116.01,-0.12881,0.48
0,-810.79,59.86,111.39,-0.12723,3.05
0,-810.79,59.86,101.62,-0.11781,0.51
0,810.79,59.86,89.55,-0.10367,-2.25
0,810.79,59.86,84.10,-0.08482,-3.82
0,767.79,44.92,84.32,-0.07383,-1.35
0,-810.79,44.92,84.82,-0.07226,3.72
0,-810.79,44.92,79.13,-0.07069,3.63
0,603.14,44.92,70.16,-0.06440,-0.21
0,810.79,44.92,65.45,-0.05655,-0.21
0,414.02,44.92,65.92,-0.05027,-2.06
0,-711.89,37.46,66.42,-0.04869,-0.90
0,-619.35,37.46,62.17,-0.04712,2.03
0,540.11,37.46,55.40,-0.04084,1.02
0,810.79,37.46,52.26,-0.03770,-0.35
0,-68.89,37.46,53.79,-0.03456,-0.96
0,-742.64,37.46,53.77,-0.03456,0.54
0,810.79,93.74,50.92,-0.03142,1.09
0,810.79,93.74,51.36,-0.03142,0.30
0,810.79,93.74,55.82,-0.03299,0.23
0,810.79,93.74,62.70,-0.03770,0.59
0,810.79,93.74,70.54,-0.04084,0.70
0,-471.35,61.86,78.29,-0.04555,0.71
0,-810.79,61.86,79.04,-0.05027,0.64
0,-261.15,61.86,72.51,-0.05498,0.14
0,810.79,61.86,65.46,-0.05341,-1.28
0,810.79,61.86,64.82,-0.05027,-1.30
0,591.24,61.86,68.47,-0.05184,-0.04
0,-222.97,105.94,71.98,-0.05498,-0.04
0,810.79,105.94,72.51,-0.05655,0.56
0,810.79,105.94,74.37,-0.05812,0.28
0,810.79,105.94,78.58,-0.05969,-0.03
0,810.79,105.94,84.13,-0.06283,0.22
0,-40.71,105.94,89.62,-0.06754,0.50
0,-810.79,67.96,91.20,-0.07226,0.46
0,-333.98,67.96,86.20,-0.07540,0.29
0,810.79,67.96,79.64,-0.07383,-0.35
0,810.79,67.96,78.30,-0.07069,-1.52
0,-19.82,67.96,80.79,-0.07226,-0.50
0,-689.90,67.96,81.15,-0.07226,0.24
0,810.79,108.99,78.56,-0.07226,-0.01
0,810.79,108.99,79.40,-0.07226,-0.07
0,810.79,108.99,83.71,-0.07383,0.25
0,810.79,108.99,89.92,-0.07697,0.51
0,-93.02,108.99,95.38,-0.08011,0.52
0,-629.52,69.49,97.57,-0.08325,0.32
0,-692.04,69.49,93.86,-0.08639,-0.02
0,660.83,69.49,86.62,-0.08482,-0.02
0,810.79,69.49,82.78,-0.08168,-0.84
0,308.65,69.49,84.47,-0.08011,-1.11
0,-680.79,69.49,85.63,-0.08168,-0.19
0,-663.71,49.74,82.05,-0.08011,0.51
0,-115.01,49.74,76.26,-0.07383,-0.16
0,655.34,49.74,70.59,-0.06440,-1.32
0,529.49,49.74,68.73,-0.05655,-2.17
0,-197.27,49.74,68.71,-0.05341,-0.45
0,-678.50,49.74,67.80,-0.05341,2.43
0,810.79,99.88,64.93,-0.05027,1.26
0,810.79,99.88,65.76,-0.05027,0.06
0,810.79,99.88,70.35,-0.05341,0.42
0,810.79,99.88,77.00,-0.05655,0.75
0,11.55,99.88,83.79,-0.05969,0.75
0,-497.73,124.94,87.41,-0.06597,0.73
0,810.79,124.94,87.04,-0.07069,0.29
0,810.79,124.94,88.40,-0.07383,0.04
0,810.79,124.94,92.14,-0.08011,-0.08
0,810.79,124.94,97.14,-0.08325,-0.08
0,810.79,124.94,103.97,-0.08954,0.10
0,-807.46,77.47,110.18,-0.09582,0.33
0,-810.79,77.47,109.51,-0.10053,0.16
0,-810.79,77.47,101.66,-0.10524,-0.10
0,810.79,77.47,91.56,-0.09896,-0.55
0,810.79,77.47,87.24,-0.08954,-2.10
0,810.79,77.47,88.85,-0.08639,-2.36
0,605.03,113.74,93.45,-0.08796,0.14
0,242.80,113.74,96.93,-0.08954,2.02
0,693.19,113.74,97.43,-0.09268,1.26
0,810.79,113.74,98.48,-0.09739,0.09
0,589.90,113.74,101.89,-0.10053,-0.09
0,272.05,71.87,104.20,-0.10210,0.31
0,-810.79,71.87,103.57,-0.10524,0.21
0,-350.79,71.87,97.78,-0.10367,-0.57
0,810.79,71.87,90.95,-0.09739,-1.36
0,810.79,71.87,88.96,-0.09111,-1.81
0,-169.11,71.87,90.00,-0.08954,-0.24
0,-810.79,50.93,89.10,-0.08796,-0.24
0,-644.44,50.93,83.55,-0.08325,1.41
0,471.49,50.93,75.93,-0.07540,0.04
0,810.79,50.93,71.61,-0.06440,-1.80
0,50.43,50.93,72.16,-0.05812,-2.45
0,-562.18,50.93,71.42,-0.05655,0.71
0,-602.63,40.46,68.10,-0.05498,2.83
0,-150.79,40.46,63.21,-0.05027,0.82
0,547.92,40.46,58.19,-0.04555,-0.57
0,590.06,40.46,56.15,-0.03927,-1.23
0,-5.03,40.46,56.11,-0.03770,-0.27
0,-410.29,40.46,55.46,-0.03613,1.34
0,810.79,95.24,54.60,-0.03613,0.83
0,810.79,95.24,57.08,-0.03613,0.32
0,810.79,95.24,62.60,-0.03927,0.38
0,801.32,95.24,69.75,-0.04241,0.61
0,-276.07,95.24,76.16,-0.04555,0.65
0,-578.89,62.62,78.61,-0.05027,0.61
0,-461.30,62.62,75.94,-0.05498,0.16
0,602.52,62.62,70.95,-0.05655,0.16
0,810.79,62.62,68.81,-0.05498,-0.42
0,138.40,62.62,70.97,-0.05655,-1.04
0,-375.13,62.62,71.46,-0.05655,-0.23
0,-624.54,46.30,70.18,-0.05498,0.07
0,-401.07,46.30,66.37,-0.05341,-0.34
0,231.80,46.30,61.85,-0.04869,-0.35
0,749.85,46.30,58.44,-0.04398,-0.80
0,301.83,46.30,58.49,-0.04084,-1.03
0,-61.16,46.30,58.12,-0.04084,0.26
0,810.79,98.16,57.80,-0.03927,1.11
0,810.79,98.16,60.86,-0.04084,0.41
0,810.79,98.16,66.55,-0.04398,0.42
0,460.29,98.16,73.72,-0.04712,0.79
0,-279.72,98.16,78.91,-0.05027,0.63
0,45.41,124.09,80.18,-0.05498,0.53
0,810.79,124.09,80.26,-0.05969,0.21
0,810.79,124.09,82.78,-0.06440,-0.10
0,810.79,124.09,87.45,-0.06912,0.09
0,810.79,124.09,93.11,-0.07540,0.09
0,810.79,124.09,100.44,-0.08168,0.30
0,258.46,137.05,107.58,-0.08796,0.39
0,-72.55,137.05,112.07,-0.09582,0.52
0,488.27,137.05,113.16,-0.10367,0.15
0,810.79,137.05,114.09,-0.11153,-0.03
0,810.79,137.05,117.50,-0.11781,-0.19
0,344.43,137.05,122.07,-0.12409,-0.19
0,-810.79,83.52,124.29,-0.13195,0.09
0,-810.79,83.52,119.76,-0.13666,-0.30
0,25.96,83.52,110.18,-0.13038,-1.16
0,810.79,83.52,102.51,-0.11938,-2.41
0,810.79,83.52,101.28,-0.11153,-3.16
0,-110.19,83.52,103.62,-0.10838,-0.49
0,224.15,116.77,103.81,-0.10838,2.78
0,810.79,116.77,103.50,-0.10996,1.66
0,599.01,116.77,106.07,-0.11310,-0.05
0,343.91,116.77,108.06,-0.11467,0.06
0,694.38,116.77,107.97,-0.11467,0.29
0,810.79,133.39,109.08,-0.11624,0.29
0,764.54,133.39,112.42,-0.11938,0.06
0,374.35,133.39,116.17,-0.12409,0.35
0,661.55,133.39,117.23,-0.12723,0.62
0,800.86,133.39,118.94,-0.13195,0.21
0,420.32,133.39,121.93,-0.13509,-0.26
0,-543.01,81.69,123.10,-0.13823,0.08
0,-810.79,81.69,119.57,-0.13823,-0.05
0,-26.34,81.69,111.03,-0.13195,-1.07
0,810.79,81.69,104.07,-0.12252,-1.70
0,698.03,81.69,103.00,-0.11310,-2.64
0,-293.45,81.69,103.50,-0.10996,-0.40
0,-810.79,55.84,101.04,-0.10838,2.33
0,-557.23,55.84,92.84,-0.10053,0.52
0,810.79,55.84,83.74,-0.09111,-1.56
0,810.79,55.84,79.94,-0.07697,-3.08
0,53.57,55.84,80.58,-0.06912,-0.63
0,-486.39,102.93,79.71,-0.06912,3.42
0,810.79,102.93,77.79,-0.06754,2.24
0,810.79,102.93,79.16,-0.06912,2.24
0,810.79,102.93,83.43,-0.07226,0.36
0,204.14,102.93,89.03,-0.07383,0.46
0,-190.59,102.93,91.80,-0.07697,0.70
0,566.29,126.47,91.64,-0.08011,0.48
0,810.79,126.47,92.52,-0.08168,0.01
0,810.79,126.47,95.54,-0.08482,-0.11
0,810.79,126.47,100.69,-0.08796,0.19
0,799.73,126.47,106.85,-0.09268,0.44
0,-246.51,126.47,112.45,-0.09739,0.32
0,-88.40,138.24,114.38,-0.10367,0.33
0,810.79,138.24,113.97,-0.10996,0.26
0,810.79,138.24,115.86,-0.11467,0.01
0,810.79,138.24,119.91,-0.12095,-0.04
0,97.73,138.24,124.94,-0.12881,0.37
0,-157.08,138.24,127.22,-0.13509,0.11
0,-810.79,84.12,125.37,-0.14137,-0.08
0,-522.59,84.12,117.62,-0.13980,-1.25
0,810.79,84.12,108.78,-0.12881,-2.53
0,810.79,84.12,105.88,-0.12095,-2.53
0,-61.66,84.12,107.11,-0.11624,-2.71
0,-518.76,117.07,106.36,-0.11467,-0.09
0,773.16,117.07,103.53,-0.11310,2.14
0,810.79,117.07,104.12,-0.11310,0.62
0,467.63,117.07,108.19,-0.11624,0.24
0,-133.87,117.07,111.03,-0.11781,0.62
0,129.40,117.07,110.78,-0.12095,0.71
0,810.79,133.54,109.77,-0.12095,0.01
0,810.79,133.54,111.75,-0.12095,-0.44
0,810.79,133.54,116.34,-0.12566,0.00
0,113.26,133.54,120.61,-0.12723,0.55
0,96.36,133.54,122.06,-0.13195,0.59
0,718.86,133.54,121.44,-0.13509,0.11
0,-427.83,81.77,121.52,-0.13823,-0.17
0,-810.79,81.77,118.36,-0.13666,-0.75
0,-40.80,81.77,110.28,-0.13038,-0.98
0,810.79,81.77,103.55,-0.12095,-1.96
0,590.77,81.77,102.72,-0.11153,-1.90
0,-249.95,115.89,103.17,-0.10996,-1.90
0,507.10,115.89,102.16,-0.10838,1.04
0,810.79,115.89,102.72,-0.10838,2.09
0,408.46,115.89,106.04,-0.11153,0.72
0,287.62,115.89,107.47,-0.11310,0.20
0,756.00,115.89,107.00,-0.11310,0.50
0,810.79,132.95,108.53,-0.11467,0.08
0,632.17,132.95,112.51,-0.11781,0.04
0,390.00,132.95,115.64,-0.12252,0.50
0,772.49,132.95,116.50,-0.12566,0.64
0,733.46,132.95,118.80,-0.13038,0.10
0,397.96,132.95,121.56,-0.13509,-0.08
0,-663.26,81.47,122.10,-0.13666,0.12
0,-810.79,81.47,117.84,-0.13666,-0.40
0,184.66,81.47,109.34,-0.12881,-1.43
0,810.79,81.47,103.21,-0.11938,-2.18
0,466.20,81.47,102.96,-0.11153,-1.89
0,-441.91,81.47,103.13,-0.10996,1.11
0,365.32,115.74,101.81,-0.10838,2.06
0,810.79,115.74,101.51,-0.10838,2.06
0,661.81,115.74,104.58,-0.10996,0.58
0,138.50,115.74,107.48,-0.11153,0.22
0,388.19,115.74,107.59,-0.11310,0.67
0,463.66,72.87,107.36,-0.11467,0.32
0,-741.26,72.87,106.87,-0.11467,-0.34
0,-582.86,72.87,101.79,-0.11153,-0.27
0,583.42,72.87,94.48,-0.10367,-0.62
0,810.79,72.87,91.39,-0.09582,-1.81
0,-59.11,72.87,92.04,-0.09268,-1.42
0,-810.79,51.43,91.11,-0.08954,1.10
0,-702.45,51.43,84.97,-0.08639,1.39
0,577.03,51.43,76.77,-0.07697,-0.60
0,810.79,51.43,72.50,-0.06597,-2.43
0,22.19,51.43,73.39,-0.05969,-1.24
0,-656.11,51.43,72.71,-0.05812,2.41
0,810.79,100.72,69.59,-0.05655,1.99
0,810.79,100.72,69.74,-0.05655,0.21
0,810.79,100.72,73.64,-0.05812,0.43
0,810.79,100.72,79.48,-0.06126,0.43
0,135.03,100.72,86.46,-0.06440,0.84
0,-726.02,65.36,90.28,-0.06754,0.73
0,-791.64,65.36,86.91,-0.07226,0.59
0,709.21,65.36,79.39,-0.07069,0.01
0,810.79,65.36,75.81,-0.06754,-1.36
0,571.00,65.36,77.46,-0.06597,-1.24
0,-566.01,65.36,79.48,-0.06754,0.05
0,131.99,107.69,77.33,-0.06597,0.55
0,810.79,107.69,75.80,-0.06597,-0.24
0,810.79,107.69,78.75,-0.06597,0.10
0,810.79,107.69,84.31,-0.07069,0.42
0,431.29,107.69,91.12,-0.07383,0.64
0,-371.69,107.69,95.54,-0.07697,0.57
0,284.47,128.85,96.53,-0.08011,0.24
0,810.79,128.85,96.60,-0.08482,-0.05
0,810.79,128.85,99.10,-0.08796,-0.08
0,810.79,128.85,103.58,-0.09111,-0.04
0,810.79,128.85,109.20,-0.09425,0.04
0,-86.99,79.42,115.11,-0.10053,0.04
0,-810.79,79.42,115.96,-0.10524,0.34
0,-810.79,79.42,109.34,-0.10996,0.49
0,810.79,79.42,98.81,-0.10681,-0.11
0,810.79,79.42,92.97,-0.09896,-2.00
0,810.79,79.42,93.48,-0.09425,-2.67
0,-371.86,54.71,97.06,-0.09425,-0.82
0,-810.79,54.71,95.80,-0.09425,2.02
0,-810.79,54.71,88.07,-0.08954,0.97
0,810.79,54.71,77.83,-0.07854,-1.53
0,810.79,54.71,72.72,-0.06283,-3.41
0,810.79,54.71,73.57,-0.05498,-2.20
0,-710.78,42.35,75.29,-0.05498,2.93
0,-810.79,42.35,71.12,-0.05498,3.38
0,429.95,42.35,63.51,-0.05184,0.48
0,810.79,42.35,59.00,-0.04398,-1.91
0,260.56,42.35,60.01,-0.04084,-1.19
0,-643.68,42.35,60.60,-0.03927,1.39
0,-508.75,36.17,56.96,-0.03770,1.14
0,290.09,36.17,51.96,-0.03456,1.14
0,810.79,36.17,48.43,-0.02985,-0.16
0,111.47,36.17,49.36,-0.02670,-0.80
0,-383.71,36.17,49.24,-0.02670,-0.01
0,-576.38,33.08,48.12,-0.02670,1.06
0,-355.04,33.08,45.49,-0.02513,0.33
0,84.40,33.08,42.54,-0.02356,-0.03
0,556.00,33.08,39.90,-0.02042,-0.20
0,472.52,33.08,39.50,-0.01885,-0.32
0,116.12,33.08,39.80,-0.01885,-0.05
0,810.79,91.55,39.59,-0.01728,0.51
0,810.79,91.55,42.35,-0.01885,0.28
0,810.79,91.55,48.48,-0.02199,0.26
0,810.79,91.55,56.55,-0.02356,0.58
0,13.96,91.55,65.15,-0.02827,0.79
0,-634.17,91.55,70.16,-0.03456,0.73
0,-528.34,60.77,69.32,-0.03927,0.32
0,180.58,60.77,65.92,-0.04241,-0.07
0,810.79,60.77,63.07,-0.04398,-0.92
0,430.94,60.77,64.49,-0.04398,-0.92
0,-1.74,60.77,65.37,-0.04555,-0.57
0,-13.62,105.39,64.81,-0.04398,-0.45
0,810.79,105.39,64.90,-0.04398,-0.09
0,810.79,105.39,68.25,-0.04555,-0.09
0,810.79,105.39,73.76,-0.04869,0.32
0,810.79,105.39,80.28,-0.05184,0.41
0,-87.14,105.39,86.99,-0.05498,0.61
0,-810.79,67.69,89.98,-0.06126,0.70
0,-598.02,67.69,85.98,-0.06597,0.44
0,810.79,67.69,78.87,-0.06912,-0.17
0,810.79,67.69,76.23,-0.06597,-1.41
0,530.59,67.69,78.31,-0.06754,-0.59
0,-588.24,67.69,80.44,-0.06912,-0.09
0,383.72,108.85,78.59,-0.06754,-0.03
0,810.79,108.85,78.08,-0.06754,-0.21
0,810.79,108.85,81.44,-0.06912,0.17
0,810.79,108.85,86.93,-0.07226,0.41
0,289.42,108.85,92.99,-0.07383,0.44
0,-295.02,108.85,96.56,-0.07854,0.44
0,-810.79,69.42,95.55,-0.08011,0.46
0,112.44,69.42,88.78,-0.08168,0.04
0,810.79,69.42,82.92,-0.07854,-0.37
0,810.79,69.42,82.90,-0.07697,-1.07
0,-356.89,69.42,85.14,-0.07854,-0.35
0,-440.88,109.72,83.91,-0.07854,0.29
0,810.79,109.72,80.99,-0.07540,-0.05
0,810.79,109.72,82.68,-0.07540,-0.23
0,810.79,109.72,87.64,-0.07854,0.33
0,536.79,109.72,94.18,-0.08168,0.52
0,-437.43,109.72,99.01,-0.08482,0.60
0,78.68,129.87,99.55,-0.08796,0.41
0,810.79,129.87,98.99,-0.09111,-0.03
0,810.79,129.87,101.07,-0.09268,-0.29
0,810.79,129.87,105.23,-0.09425,-0.12
0,810.79,129.87,110.63,-0.09739,0.20
0,-12.94,129.87,116.71,-0.10210,0.52
0,-195.09,139.94,119.63,-0.10838,0.68
0,667.94,139.94,119.28,-0.11310,0.68
0,810.79,139.94,120.28,-0.11938,0.31
0,810.79,139.94,123.88,-0.12566,0.11
0,132.68,139.94,128.01,-0.13195,0.09
0,128.51,144.98,129.32,-0.13666,-0.06
0,810.79,144.98,129.04,-0.14294,-0.09
0,791.80,144.98,131.30,-0.14765,-0.12
0,337.41,144.98,134.37,-0.15237,-0.41
0,298.75,144.98,135.67,-0.15551,-0.31
0,659.62,144.98,135.66,-0.15551,-0.57
0,620.11,147.49,137.13,-0.15551,-0.58
0,508.35,147.49,138.69,-0.15708,-0.28
0,664.47,147.49,139.27,-0.15708,-0.00
0,585.71,147.49,140.60,-0.15865,0.05
0,497.21,147.49,141.66,-0.16022,0.01
0,638.53,147.49,141.93,-0.16022,-0.02
0,593.41,148.75,142.91,-0.16179,-0.08
0,500.87,148.75,143.85,-0.16179,0.01
0,643.71,148.75,144.02,-0.16336,-0.03
0,512.18,148.75,145.02,-0.16336,-0.03
0,569.66,148.75,145.25,-0.16336,-0.03
0,609.06,148.75,145.60,-0.16493,-0.08
0,-810.79,89.37,145.54,-0.16493,-0.03
0,-810.79,89.37,140.12,-0.16336,-0.05
0,-710.64,89.37,129.90,-0.15865,-0.16
0,810.79,89.37,118.64,-0.14451,-0.84
0,810.79,89.37,114.25,-0.13195,-2.33
0,111.51,59.68,115.61,-0.12723,-1.98
0,-810.79,59.68,114.93,-0.12566,1.49
0,-810.79,59.68,107.61,-0.12095,2.54
0,-348.95,59.68,96.32,-0.10996,-0.22
0,810.79,59.68,85.69,-0.09425,-2.73
0,810.79,59.68,82.43,-0.07697,-3.80
0,810.79,104.85,84.28,-0.06754,-0.02
0,810.79,104.85,88.45,-0.06754,4.54
0,124.04,104.85,92.82,-0.07226,3.92
0,155.42,104.85,94.01,-0.08011,1.83
0,780.91,104.85,93.36,-0.08796,0.58
0,691.25,104.85,95.22,-0.08954,-0.38
0,-738.65,67.42,96.91,-0.09268,-0.64
0,-699.28,67.42,92.85,-0.09111,-0.64
0,606.03,67.42,85.41,-0.08482,-0.96
0,810.79,67.42,81.91,-0.07854,-1.31
0,106.96,67.42,83.53,-0.07540,-1.81
0,-780.10,48.71,83.90,-0.07540,0.21
0,-765.81,48.71,79.39,-0.07226,1.64
0,471.95,48.71,71.29,-0.06440,-0.08
0,810.79,48.71,66.75,-0.05498,-1.69
0,234.00,48.71,67.65,-0.04869,-1.92
0,-620.62,48.71,67.96,-0.04869,1.19
0,-638.52,39.35,64.82,-0.04712,2.20
0,139.71,39.35,59.17,-0.04398,0.19
0,810.79,39.35,54.70,-0.03927,-0.76
0,219.27,39.35,54.95,-0.03456,-0.94
0,-338.30,39.35,54.76,-0.03299,0.67
0,-598.31,39.35,53.62,-0.03299,1.12
0,810.79,94.68,51.53,-0.03142,0.18
0,810.79,94.68,53.05,-0.03142,0.10
0,810.79,94.68,58.27,-0.03299,0.50
0,810.79,94.68,65.38,-0.03770,0.50
0,246.25,94.68,73.40,-0.04084,0.65
0,-754.33,62.34,78.71,-0.04555,0.76
0,-721.30,62.34,76.09,-0.05027,0.55
0,810.79,62.34,69.44,-0.05184,0.20
0,810.79,62.34,66.75,-0.05027,-0.83
0,664.23,62.34,69.10,-0.05184,-0.98
0,-512.43,62.34,71.91,-0.05341,-0.03
0,-651.78,46.16,70.13,-0.05184,-10.04
0,-83.06,46.16,65.29,-0.04869,-0.43
0,677.89,46.16,60.56,-0.04555,-0.42
0,503.76,46.16,59.62,-0.04241,-0.84
0,-163.33,46.16,60.07,-0.04084,-0.20
0,-587.00,46.16,59.68,-0.04084,0.84
0,794.14,98.09,57.65,-0.03927,0.22
0,810.79,98.09,58.29,-0.03927,0.09
0,810.79,98.09,62.80,-0.04084,0.32
0,810.79,98.09,69.53,-0.04398,0.61
0,371.67,98.09,77.39,-0.04869,0.70
0,-556.19,98.09,82.59,-0.05184,0.70
0,-810.79,64.04,81.82,-0.05812,0.74
0,305.52,64.04,75.04,-0.06126,0.33
0,810.79,64.04,70.17,-0.05812,-0.50
0,810.79,64.04,71.14,-0.05655,-1.43
0,-285.92,64.04,74.58,-0.05812,-0.37
0,-360.40,107.03,74.27,-0.05969,0.34
0,810.79,107.03,72.09,-0.05812,-0.18
0,810.79,107.03,73.89,-0.05812,-0.09
0,810.79,107.03,78.54,-0.06126,0.11
0,810.79,107.03,84.79,-0.06440,0.46
0,173.67,107.03,91.80,-0.06754,0.57
0,-119.71,128.52,95.71,-0.07226,0.56
0,810.79,128.52,96.58,-0.07697,0.44
0,810.79,128.52,97.82,-0.08011,0.06
0,810.79,128.52,101.30,-0.08639,-0.08
0,810.79,128.52,106.44,-0.09111,0.25
0,324.63,128.52,112.37,-0.09582,0.24
0,-8.15,139.27,116.27,-0.10367,0.28
0,606.59,139.27,116.97,-0.10996,0.28
0,810.79,139.27,117.58,-0.11624,0.23
0,810.79,139.27,120.50,-0.12252,-0.13
0,388.57,139.27,125.57,-0.12881,-0.06
0,-166.98,144.64,128.90,-0.13509,0.13
0,272.02,144.64,129.28,-0.14137,-0.05
0,810.79,144.64,129.05,-0.14608,-0.12
0,776.68,144.64,131.75,-0.14765,-0.68
0,237.07,144.64,134.98,-0.15237,-0.67
0,172.45,144.64,136.24,-0.15394,-0.16
0,-210.30,87.32,136.01,-0.15551,-0.18
0,-810.79,87.32,133.42,-0.15551,-0.51
0,-740.49,87.32,125.33,-0.15080,-0.55
0,808.60,87.32,115.79,-0.13980,-1.03
0,810.79,87.32,110.98,-0.12881,-2.50
0,249.06,87.32,111.80,-0.12252,-1.22
0,-65.77,118.66,112.20,-0.12095,2.12
0,407.63,118.66,111.43,-0.12095,2.12
0,791.61,118.66,111.23,-0.12252,0.19
0,406.49,118.66,113.37,-0.12252,0.19
0,417.72,118.66,113.86,-0.12409,0.22
0,671.37,118.66,113.71,-0.12409,0.08
0,810.79,134.34,115.40,-0.12409,-0.00
0,476.08,134.34,119.20,-0.12723,0.08
0,391.00,134.34,121.16,-0.13038,0.55
0,810.79,134.34,121.44,-0.13195,0.40
0,591.34,134.34,123.88,-0.13666,0.07
0,440.93,142.18,125.70,-0.13980,0.21
0,810.79,142.18,126.53,-0.14137,0.09
0,509.96,142.18,129.59,-0.14451,-0.38
0,361.15,142.18,131.49,-0.14765,-0.10
0,708.90,142.18,131.65,-0.14765,-0.02
0,674.29,142.18,133.20,-0.14923,-0.19
0,435.30,146.10,135.28,-0.15237,-0.11
0,628.29,146.10,135.90,-0.15394,0.11
0,660.97,146.10,137.18,-0.15551,-0.04
0,415.44,146.10,138.98,-0.15708,-0.11
0,618.22,146.10,139.17,-0.15708,-0.19
0,624.22,146.10,140.04,-0.15865,-0.19
0,-810.79,88.04,140.66,-0.15865,-0.07
0,-810.79,88.04,136.07,-0.15865,-0.10
0,-703.87,88.04,126.36,-0.15237,-0.23
0,810.79,88.04,115.52,-0.13980,-0.92
0,810.79,88.04,111.33,-0.13038,-2.34
0,367.58,59.02,112.31,-0.12409,-2.19
0,-810.79,59.02,111.87,-0.12252,1.19
0,-810.79,59.02,105.13,-0.11781,2.78
0,-66.26,59.02,93.90,-0.10681,-0.18
0,810.79,59.02,84.49,-0.09111,-2.42
0,810.79,59.02,82.41,-0.07540,-3.68
0,659.57,104.52,84.58,-0.06912,-0.17
0,643.73,104.52,87.09,-0.07069,4.27
0,624.78,104.52,89.26,-0.07383,3.56
0,655.44,104.52,91.04,-0.08168,1.53
0,611.29,104.52,92.84,-0.08639,0.39
0,622.48,104.52,94.22,-0.08954,-0.07
0,-239.00,67.25,94.72,-0.09111,-0.70
0,-729.38,67.25,92.69,-0.09111,-0.71
0,-43.90,67.25,87.22,-0.08639,-0.66
0,810.79,67.25,82.21,-0.08168,-0.66
0,468.93,67.25,81.80,-0.07540,-1.31
0,-187.47,48.62,82.02,-0.07540,-1.01
0,-810.79,48.62,79.92,-0.07383,0.88
0,-123.61,48.62,73.35,-0.06754,0.82
0,810.79,48.62,66.98,-0.05969,-0.76
0,534.39,48.62,66.46,-0.05184,-2.01
0,-231.35,48.62,66.65,-0.04869,-0.61
0,-696.77,39.31,65.48,-0.04712,2.05
0,-368.86,39.31,60.98,-0.04555,1.30
0,454.66,39.31,55.68,-0.04084,-0.25
0,723.07,39.31,53.12,-0.03613,-0.90
0,-31.97,39.31,53.84,-0.03299,-0.38
0,-439.89,39.31,53.32,-0.03299,0.89
0,-685.02,34.65,51.86,-0.03142,0.84
0,-32.25,34.65,47.58,-0.02985,-0.16
0,723.91,34.65,43.66,-0.02513,-0.59
0,522.81,34.65,43.41,-0.02356,-0.26
0,-10.46,34.65,44.00,-0.02356,0.63
0,-358.98,34.65,43.97,-0.02199,0.63
0,-627.03,32.32,43.40,-0.02199,0.56
0,-254.68,32.32,40.77,-0.02042,0.09
0,167.05,32.32,38.38,-0.01885,0.05
0,627.88,32.32,36.21,-0.01728,-0.24
0,390.00,32.32,36.63,-0.01728,-0.36
0,483.53,91.17,36.83,-0.01571,0.12
0,810.79,91.17,38.81,-0.01728,0.39
0,810.79,91.17,44.53,-0.01885,0.29
0,810.79,91.17,52.53,-0.02356,0.36
0,415.79,91.17,61.34,-0.02513,0.68
0,-604.44,91.17,68.01,-0.03142,0.71
0,393.01,120.59,68.96,-0.03770,0.56
0,810.79,120.59,69.32,-0.04241,0.16
0,810.79,120.59,72.44,-0.04712,-0.12
0,810.79,120.59,77.58,-0.05184,-0.05
0,810.79,120.59,83.79,-0.05655,0.23
0,810.79,120.59,91.32,-0.06440,0.42
0,-128.27,75.29,99.09,-0.07226,0.60
0,-810.79,75.29,101.65,-0.08011,0.60
0,-810.79,75.29,96.14,-0.08639,0.36
0,810.79,75.29,85.99,-0.08639,-0.36
0,810.79,75.29,80.52,-0.07854,-2.28
0,810.79,52.64,81.18,-0.07540,-2.80
0,-263.66,52.64,85.15,-0.07540,-1.20
0,-810.79,52.64,84.71,-0.07697,1.80
0,-674.62,52.64,77.64,-0.07383,1.09
0,810.79,52.64,68.88,-0.06283,-1.35
0,810.79,52.64,66.20,-0.05184,-2.71
0,810.79,101.33,68.15,-0.04869,-1.42
0,810.79,101.33,72.85,-0.05027,2.81
0,310.62,101.33,77.98,-0.05341,2.65
0,470.20,101.33,80.15,-0.06126,1.44
0,810.79,101.33,81.31,-0.06754,0.48
0,598.36,101.33,85.06,-0.07069,0.16
0,810.79,125.67,87.99,-0.07697,0.02
0,810.79,125.67,91.66,-0.08168,-0.19
0,810.79,125.67,96.73,-0.08482,-0.11
0,246.86,125.67,102.33,-0.08954,-0.11
0,273.48,125.67,105.00,-0.09425,0.18
0,810.79,125.67,105.26,-0.09739,0.02
0,810.79,137.84,106.94,-0.10053,-0.43
0,810.79,137.84,111.18,-0.10524,-0.27
0,810.79,137.84,117.06,-0.10996,0.29
0,-12.26,137.84,122.17,-0.11624,0.49
0,-141.81,137.84,124.31,-0.12409,0.48
0,90.16,83.92,123.81,-0.13038,0.27
0,-810.79,83.92,121.77,-0.13509,-0.16
0,-326.87,83.92,115.13,-0.13509,-0.69
0,793.55,83.92,107.79,-0.12566,-1.90
0,669.38,83.92,105.63,-0.11781,-2.29
0,-286.12,83.92,106.00,-0.11467,-0.99
0,-197.09,116.97,104.93,-0.11310,1.26
0,810.79,116.97,103.13,-0.11153,0.84
0,810.79,116.97,104.69,-0.11310,0.30
0,236.06,116.97,108.51,-0.11467,0.47
0,59.19,116.97,109.95,-0.11781,0.49
0,454.45,116.97,109.50,-0.11781,0.49
0,-241.17,73.48,108.56,-0.11781,0.02
0,-810.79,73.48,105.86,-0.11624,-0.29
0,-39.54,73.48,99.20,-0.10996,-0.23
0,810.79,73.48,93.28,-0.10210,-1.04
0,394.91,73.48,92.63,-0.09425,-2.18
0,-199.95,111.75,92.39,-0.08954,-0.87
0,759.11,111.75,91.68,-0.08954,1.79
0,810.79,111.75,93.28,-0.09111,1.52
0,511.19,111.75,97.52,-0.09425,0.52
0,149.10,111.75,100.25,-0.09582,0.53
0,614.84,111.75,100.06,-0.09582,0.37
0,810.79,130.88,100.93,-0.09896,-0.05
0,810.79,130.88,104.35,-0.10210,0.10
0,767.29,130.88,109.20,-0.10524,0.44
0,70.37,130.88,113.95,-0.10996,0.67
0,188.68,130.88,115.48,-0.11624,0.32
0,800.55,130.88,115.43,-0.12095,0.09
0,810.79,140.45,117.62,-0.12566,-0.06
0,619.25,140.45,121.65,-0.13038,-0.06
0,170.74,140.45,125.33,-0.13666,-0.02
0,446.04,140.45,126.18,-0.14137,0.19
0,810.79,140.45,126.74,-0.14451,-0.03
0,483.08,140.45,129.69,-0.14608,-0.65
0,489.55,145.23,131.41,-0.14923,-0.53
0,778.64,145.23,132.25,-0.14923,-0.23
0,578.03,145.23,134.58,-0.15237,-0.06
0,341.73,145.23,136.53,-0.15551,0.19
0,585.80,145.23,136.77,-0.15708,0.09
0,155.62,87.61,137.46,-0.15708,-0.29
0,-810.79,87.61,136.01,-0.15708,-0.45
0,-810.79,87.61,128.88,-0.15394,-0.25
0,427.92,87.61,118.61,-0.14451,-0.88
0,810.79,87.61,111.86,-0.13195,-2.42
0,762.94,87.61,111.54,-0.12409,-2.07
0,-810.79,58.80,112.58,-0.12252,1.37
0,-810.79,58.80,107.58,-0.11938,2.37
0,-703.15,58.80,97.71,-0.10996,-0.44
0,810.79,58.80,86.64,-0.09739,-2.71
0,810.79,58.80,82.54,-0.08011,-2.71
0,431.10,58.80,83.81,-0.07069,-3.49
0,-810.79,44.40,83.93,-0.06912,1.12
0,-810.79,44.40,77.82,-0.06754,4.15
0,764.24,44.40,68.48,-0.06126,2.04
0,810.79,44.40,64.19,-0.05341,-1.28
0,197.59,44.40,65.54,-0.04712,-2.24
0,-479.25,97.20,65.89,-0.04712,0.52
0,810.79,97.20,64.42,-0.04555,2.23
0,810.79,97.20,66.35,-0.04712,0.97
0,810.79,97.20,71.12,-0.05027,0.12
0,678.84,97.20,77.59,-0.05184,0.72
0,-181.33,97.20,82.59,-0.05498,0.69
0,-753.41,63.60,84.09,-0.05969,0.60
0,-287.19,63.60,79.75,-0.06440,0.17
0,810.79,63.60,74.00,-0.06283,-0.82
0,810.79,63.60,72.67,-0.06126,-1.03
0,64.22,63.60,74.67,-0.06126,-0.06
0,-541.53,63.60,75.14,-0.06126,0.10
0,701.18,106.81,73.67,-0.06126,0.10
0,810.79,106.81,74.62,-0.06126,-0.22
0,810.79,106.81,78.91,-0.06440,0.18
0,810.79,106.81,85.00,-0.06754,0.31
0,-98.33,106.81,90.54,-0.07069,0.56
0,-145.96,68.40,92.47,-0.07383,0.55
0,-696.31,68.40,91.07,-0.07854,0.29
0,-58.85,68.40,86.07,-0.07854,-0.16
0,810.79,68.40,80.98,-0.07540,-1.03
0,551.34,68.40,80.83,-0.07383,-1.00
0,-255.97,68.40,81.80,-0.07383,-0.15
0,-180.94,109.21,81.34,-0.07383,0.34
0,810.79,109.21,80.63,-0.07383,-0.01
0,810.79,109.21,83.51,-0.07540,0.15
0,735.36,109.21,88.97,-0.07854,0.41
0,-4.01,109.21,93.33,-0.08011,0.50
0,239.58,109.21,94.60,-0.08168,0.31
0,810.79,129.61,94.36,-0.08482,-0.08
0,810.79,129.61,96.49,-0.08796,0.02
0,810.79,129.61,100.65,-0.09111,0.02
0,810.79,129.61,106.52,-0.09425,0.24
0,305.71,129.61,112.94,-0.09739,0.11
0,-460.52,129.61,117.25,-0.10367,0.29
0,-810.79,79.80,115.79,-0.10996,0.51
0,-349.43,79.80,107.57,-0.11310,0.34
0,810.79,79.80,98.80,-0.10838,-0.42
0,810.79,79.80,96.10,-0.10210,-2.00
0,302.11,79.80,98.57,-0.10053,-1.54
0,-810.79,54.90,99.74,-0.10210,0.64
0,-810.79,54.90,94.31,-0.09896,0.80
0,170.00,54.90,84.78,-0.08954,-0.76
0,810.79,54.90,77.76,-0.07697,-2.73
0,810.79,54.90,76.85,-0.06597,-2.95
0,-242.57,54.90,77.57,-0.06283,1.47
0,-810.79,42.44,75.83,-0.06126,3.66
0,-167.12,42.44,69.17,-0.05969,1.18
0,810.79,42.44,62.81,-0.05341,-1.46
0,611.84,42.44,61.39,-0.04555,-1.86
0,-341.31,42.44,62.06,-0.04241,-1.86
0,-665.80,42.44,60.64,-0.04084,0.69
0,810.79,96.23,56.95,-0.03927,1.78
0,810.79,96.23,57.35,-0.03927,0.21
0,810.79,96.23,61.76,-0.04084,0.21
0,810.79,96.23,68.42,-0.04398,0.63
0,810.79,96.23,76.34,-0.04712,0.79
0,-555.83,63.11,83.09,-0.05184,0.64
0,-810.79,63.11,83.00,-0.05812,0.68
0,-90.91,63.11,75.76,-0.06126,0.25
0,810.79,63.11,68.83,-0.05812,-1.12
0,810.79,63.11,68.17,-0.05498,-1.68
0,445.19,63.11,72.01,-0.05655,-0.53
0,-810.79,46.55,74.72,-0.05812,0.93
0,-810.79,46.55,70.22,-0.05655,0.18
0,611.49,46.55,62.60,-0.05027,-0.90
0,810.79,46.55,58.84,-0.04398,-1.67
0,334.83,46.55,60.62,-0.04084,-0.49
0,-680.14,46.55,61.99,-0.04084,1.78
0,758.84,98.28,59.50,-0.04084,1.78
0,810.79,98.28,59.39,-0.04084,0.79
0,810.79,98.28,63.37,-0.04241,-0.01
0,810.79,98.28,69.56,-0.04398,0.38
0,810.79,98.28,77.10,-0.04869,0.71
0,-365.34,98.28,83.35,-0.05341,0.61
0,-810.79,64.14,83.94,-0.05812,0.71
0,-137.10,64.14,77.36,-0.06283,0.37
0,810.79,64.14,70.73,-0.05969,-0.71
0,810.79,64.14,70.01,-0.05812,-1.70
0,310.87,64.14,73.55,-0.05812,-0.63
0,-484.19,107.08,75.75,-0.05969,0.67
0,810.79,107.08,74.88,-0.05969,0.27
0,810.79,107.08,76.99,-0.06126,-0.24
0,810.79,107.08,81.43,-0.06440,0.29
0,583.24,107.08,87.40,-0.06597,0.61
0,-104.03,107.08,91.84,-0.07069,0.54
0,-601.14,68.53,92.75,-0.07540,0.36
0,-484.58,68.53,89.04,-0.07854,-0.07
0,650.30,68.53,82.99,-0.07697,-0.07
0,810.79,68.53,80.28,-0.07383,-1.13
0,47.22,68.53,82.02,-0.07383,-0.97
0,-564.07,68.53,82.19,-0.07383,0.09
0,700.96,109.27,80.40,-0.07383,0.19
0,810.79,109.27,81.54,-0.07383,-0.12
0,810.79,109.27,86.16,-0.07540,0.21
0,265.72,109.27,92.05,-0.07854,0.50
0,-46.61,109.27,94.97,-0.08168,0.49
0,474.11,129.64,95.19,-0.08325,0.27
0,810.79,129.64,96.18,-0.08639,-0.08
0,810.79,129.64,99.57,-0.08954,0.09
0,810.79,129.64,104.69,-0.09268,0.22
0,494.20,129.64,110.71,-0.09739,0.14
0,-243.87,129.64,115.21,-0.10210,0.33
0,108.84,139.83,116.15,-0.10838,0.42
0,810.79,139.83,115.80,-0.11310,0.18
0,810.79,139.83,118.06,-0.11781,-0.08
0,810.79,139.83,122.31,-0.12409,0.13
0,37.49,139.83,127.28,-0.13038,0.13
0,-230.50,139.83,129.52,-0.13666,0.37
0,362.85,144.92,129.18,-0.14294,0.03
0,810.79,144.92,129.45,-0.14765,-0.12
0,517.49,144.92,132.82,-0.14923,-0.72
0,244.82,144.92,135.06,-0.15394,-0.64
0,442.72,144.92,135.55,-0.15551,-0.25
0,724.17,144.92,135.85,-0.15551,-0.25
0,-810.79,87.46,135.82,-0.15708,-0.38
0,-810.79,87.46,130.56,-0.15394,-0.35
0,-82.54,87.46,120.74,-0.14608,-0.43
0,810.79,87.46,112.16,-0.13352,-1.49
0,810.79,87.46,110.27,-0.12409,-2.54
0,174.81,118.73,111.71,-0.12095,-0.35
0,531.13,118.73,111.33,-0.12095,2.78
0,705.46,118.73,111.82,-0.12252,1.84
0,448.17,118.73,113.46,-0.12409,0.20
0,619.16,118.73,113.52,-0.12409,0.00
0,619.12,118.73,114.22,-0.12566,0.14
0,810.79,134.37,115.29,-0.12566,-0.09
0,636.38,134.37,118.31,-0.12723,-0.09
0,421.07,134.37,120.90,-0.13038,0.29
0,810.79,134.37,121.23,-0.13352,0.53
0,807.52,134.37,123.04,-0.13666,0.13
0,307.16,134.37,125.98,-0.13980,0.08
0,-810.79,82.18,125.92,-0.14294,0.34
0,-810.79,82.18,119.82,-0.13980,-0.19
0,418.37,82.18,110.05,-0.13038,-1.18
0,810.79,82.18,103.97,-0.11781,-2.22
0,656.41,82.18,103.93,-0.10996,-2.67
0,-684.70,56.09,104.80,-0.10838,0.66
0,-810.79,56.09,100.68,-0.10681,2.90
0,-339.82,56.09,91.47,-0.09896,0.32
0,810.79,56.09,82.40,-0.08639,-2.14
0,810.79,56.09,79.97,-0.07226,-3.20
0,-182.85,56.09,81.15,-0.06754,0.19
0,54.20,103.05,80.07,-0.06754,3.68
0,810.79,103.05,79.16,-0.06754,2.24
0,810.79,103.05,81.97,-0.07069,0.29
0,592.01,103.05,87.04,-0.07383,0.29
0,-68.08,103.05,91.04,-0.07540,0.42
0,168.79,103.05,91.61,-0.07697,0.55
0,810.79,126.53,91.70,-0.08011,0.16
0,810.79,126.53,93.99,-0.08168,-0.15
0,810.79,126.53,98.54,-0.08482,0.06
0,810.79,126.53,104.56,-0.08954,0.35
0,71.56,126.53,110.44,-0.09425,0.46
0,-500.17,78.26,113.45,-0.10053,0.41
0,-810.79,78.26,110.66,-0.10681,0.27
0,175.08,78.26,102.23,-0.10838,-0.01
0,810.79,78.26,95.46,-0.10210,-1.60
0,810.79,78.26,95.05,-0.09896,-1.98
0,-361.59,78.26,97.52,-0.09896,-0.53
0,-226.96,114.14,96.19,-0.09739,1.01
0,810.79,114.14,93.58,-0.09582,0.01
0,810.79,114.14,95.62,-0.09582,0.07
0,739.26,114.14,100.66,-0.09896,0.50
0,-188.24,114.14,105.13,-0.10367,0.66
0,-214.75,114.14,106.15,-0.10681,0.66
0,-725.63,72.07,105.25,-0.10996,0.55
0,-462.87,72.07,99.96,-0.10681,-0.06
0,627.88,72.07,93.33,-0.10053,-1.24
0,810.79,72.07,90.18,-0.09111,-1.62
0,70.22,72.07,90.39,-0.08796,-1.64
0,-377.50,72.07,89.52,-0.08639,0.56
0,-810.79,51.03,86.24,-0.08482,1.72
0,-51.43,51.03,79.10,-0.07697,-0.12
0,810.79,51.03,72.74,-0.06597,-1.72
0,492.49,51.03,71.72,-0.05812,-2.28
0,-251.11,51.03,71.50,-0.05498,0.64
0,-707.88,40.51,70.02,-0.05341,2.76
0,-459.02,40.51,65.38,-0.05184,0.98
0,386.93,40.51,59.59,-0.04555,-0.76
0,794.03,40.51,56.24,-0.03927,-1.32
0,28.46,40.51,56.80,-0.03613,-0.13
0,-439.29,40.51,56.26,-0.03613,1.45
0,-632.94,35.25,54.42,-0.03456,0.76
0,-258.79,35.25,50.89,-0.03299,0.76
0,382.88,35.25,46.85,-0.02827,-0.08
0,717.14,35.25,44.53,-0.02513,-0.64
0,252.45,35.25,44.91,-0.02356,-0.47
0,-12.69,35.25,44.53,-0.02356,0.66
0,810.79,92.63,44.84,-0.02356,0.70
0,810.79,92.63,48.92,-0.02513,0.28
0,810.79,92.63,55.67,-0.02827,0.30
0,606.46,92.63,63.86,-0.03142,0.84
0,-366.77,92.63,70.32,-0.03613,0.70
0,-521.66,61.31,72.68,-0.04084,0.57
0,-399.83,61.31,70.69,-0.04555,0.15
0,370.16,61.31,66.99,-0.04869,-0.15
0,810.79,61.31,64.76,-0.04712,-1.13
0,353.84,61.31,66.26,-0.04712,-0.36
0,5.13,61.31,66.66,-0.04712,-0.35
0,810.79,105.66,65.83,-0.04712,-0.07
0,810.79,105.66,67.52,-0.04869,-0.04
0,810.79,105.66,72.03,-0.05027,0.32
0,810.79,105.66,78.07,-0.05341,0.32
0,322.91,105.66,85.00,-0.05655,0.47
0,-390.81,105.66,89.63,-0.06283,0.66
0,-810.79,67.83,89.50,-0.06754,0.61
0,79.58,67.83,83.29,-0.07069,0.22
0,810.79,67.83,77.74,-0.06912,-0.30
0,810.79,67.83,77.84,-0.06754,-1.45
0,-233.56,67.83,80.48,-0.07069,-0.44
0,-723.51,48.91,80.11,-0.06912,-0.02
0,-358.89,48.91,74.88,-0.06754,-0.18
0,549.88,48.91,68.76,-0.05969,-0.80
0,629.35,48.91,66.41,-0.05341,-1.67
0,18.18,48.91,66.21,-0.05027,-0.76
0,-419.58,48.91,65.47,-0.04869,1.26
0,-658.43,39.45,63.66,-0.04712,1.15
0,-305.68,39.45,59.44,-0.04398,-0.12
0,329.20,39.45,54.94,-0.03927,-0.67
0,647.45,39.45,52.19,-0.03456,-0.94
0,253.35,39.45,51.97,-0.03142,-0.02
0,-162.71,39.45,51.76,-0.02985,-0.02
0,810.79,94.73,51.17,-0.02985,1.26
0,810.79,94.73,53.38,-0.02985,0.56
0,810.79,94.73,58.75,-0.03299,0.36
0,810.79,94.73,65.90,-0.03613,0.60
0,-60.20,94.73,72.95,-0.03927,0.62
0,-514.43,94.73,76.80,-0.04398,0.70
0,810.79,122.37,76.91,-0.04869,0.47
0,810.79,122.37,78.57,-0.05341,0.21
0,810.79,122.37,82.24,-0.05969,-0.06
0,810.79,122.37,87.83,-0.06440,0.20
0,810.79,122.37,94.26,-0.07226,0.38
0,458.67,76.18,101.89,-0.08011,0.54
0,-810.79,76.18,105.76,-0.08639,0.33
0,-810.79,76.18,101.00,-0.09425,0.03
0,402.62,76.18,90.92,-0.09268,-1.08
0,810.79,76.18,83.62,-0.08325,-2.80
0,810.79,76.18,83.36,-0.07854,-2.53
0,256.28,53.09,87.16,-0.07854,0.48
0,-810.79,53.09,88.18,-0.07854,2.13
0,-810.79,53.09,81.83,-0.07697,0.27
0,752.21,53.09,72.80,-0.06912,0.27
0,810.79,53.09,67.96,-0.05812,-2.11
0,732.73,53.09,69.20,-0.05027,-2.82
0,-810.79,41.54,70.92,-0.05184,0.40
0,-695.90,41.54,66.53,-0.05027,3.15
0,643.03,41.54,58.96,-0.04555,1.19
0,810.79,41.54,55.53,-0.04084,-1.22
0,182.54,41.54,57.14,-0.03613,-1.59
0,-708.16,35.77,57.83,-0.03613,0.80
0,-436.02,35.77,53.93,-0.03456,1.32
0,483.78,35.77,48.72,-0.02985,0.12
0,810.79,35.77,46.21,-0.02670,-0.65
0,61.05,35.77,47.59,-0.02513,-0.39
0,-470.32,35.77,47.76,-0.02513,0.87
0,-541.60,32.88,46.22,-0.02513,0.48
0,-188.13,32.88,43.41,-0.02356,0.06
0,276.78,32.88,40.63,-0.02199,-0.12
0,584.36,32.88,38.75,-0.01885,-0.28
0,429.14,32.88,38.62,-0.01885,-0.24
0,206.85,32.88,38.62,-0.01728,-0.24
0,-32.47,31.44,38.60,-0.01728,0.38
0,-281.94,31.44,38.51,-0.01728,0.30
0,-455.56,31.44,38.18,-0.01728,0.17
0,-503.79,31.44,37.49,-0.01728,0.09
0,-392.00,31.44,36.35,-0.01728,0.01
0,-168.22,90.73,35.01,-0.01571,-0.08
0,810.79,90.73,35.20,-0.01571,-0.15
0,810.79,90.73,39.86,-0.01571,0.06
0,810.79,90.73,47.46,-0.02042,0.31
0,810.79,90.73,56.41,-0.02356,0.64
0,-271.67,90.73,65.54,-0.02827,0.81
0,-300.88,120.37,69.34,-0.03299,0.70
0,810.79,120.37,69.38,-0.03927,0.34
0,810.79,120.37,71.90,-0.04398,0.05
0,810.79,120.37,76.60,-0.05027,-0.00
0,810.79,120.37,82.45,-0.05498,0.21
0,810.79,120.37,89.75,-0.06283,0.45
0,169.52,75.18,97.37,-0.07226,0.47
0,-810.79,75.18,100.75,-0.08011,0.47
0,-810.79,75.18,95.92,-0.08639,0.38
0,739.32,75.18,86.04,-0.08639,-0.39
0,810.79,75.18,80.34,-0.07854,-2.33
0,810.79,75.18,80.96,-0.07383,-2.92
0,810.79,112.60,85.30,-0.07540,-1.23
0,810.79,112.60,91.48,-0.07697,1.93
0,-121.86,112.60,96.94,-0.08168,1.69
0,-197.78,112.60,98.89,-0.08954,0.91
0,582.57,112.60,97.97,-0.09268,0.26
0,802.02,71.29,98.50,-0.09425,-0.40
0,-586.55,71.29,99.48,-0.09739,-0.60
0,-586.73,71.29,95.62,-0.09582,-0.50
0,533.44,71.29,89.01,-0.09111,-0.67
0,810.79,71.29,85.68,-0.08482,-1.40
0,45.80,71.29,87.08,-0.08325,-0.98
0,42.34,110.65,87.24,-0.08168,1.17
0,810.79,110.65,87.20,-0.08168,0.86
0,810.79,110.65,90.17,-0.08325,0.17
0,364.83,110.65,94.67,-0.08639,0.17
0,239.42,110.65,96.85,-0.08796,0.60
0,739.74,110.65,96.91,-0.09111,0.60
0,-49.64,70.32,97.64,-0.09268,-0.09
0,-704.37,70.32,96.21,-0.09268,-0.27
0,-203.74,70.32,91.24,-0.09111,-0.31
0,699.29,70.32,85.81,-0.08639,-0.60
0,638.47,70.32,84.44,-0.08168,-1.09
0,-144.20,110.17,85.15,-0.08011,-0.65
0,810.79,110.17,84.73,-0.08011,0.96
0,810.79,110.17,87.20,-0.08011,0.67
0,610.85,110.17,92.10,-0.08482,0.41
0,87.26,110.17,95.82,-0.08639,0.67
0,435.62,110.17,96.31,-0.08954,0.55
0,810.79,130.09,96.41,-0.09268,-0.06
0,810.79,130.09,99.09,-0.09425,-0.13
0,810.79,130.09,103.71,-0.09582,-0.04
0,750.06,130.09,109.41,-0.09896,0.15
0,-133.14,130.09,114.62,-0.10367,0.49
0,-133.14,130.09,116.31,-0.10838,0.49
0,793.29,140.05,115.57,-0.11310,0.50
0,810.79,140.05,117.06,-0.11781,0.10
0,810.79,140.05,120.76,-0.12409,-0.09
0,222.16,140.05,125.93,-0.12881,0.20
0,-133.51,140.05,128.62,-0.13509,0.36
0,292.14,140.05,128.55,-0.14137,0.01
0,-684.70,85.02,127.29,-0.14451,-0.11
0,-810.79,85.02,122.22,-0.14294,-0.81
0,309.97,85.02,113.82,-0.13509,-1.34
0,810.79,85.02,108.13,-0.12566,-2.05
0,313.18,85.02,108.00,-0.11938,-2.11
0,-316.54,117.52,107.72,-0.11624,0.56
0,372.55,117.52,106.68,-0.11624,1.99
0,810.79,117.52,106.59,-0.11467,0.61
0,408.69,117.52,109.50,-0.11781,0.27
0,250.81,117.52,110.83,-0.11781,0.42
0,683.47,117.52,110.26,-0.11781,0.16
0,810.79,133.77,111.57,-0.11938,-0.11
0,638.53,133.77,115.09,-0.12252,-0.11
0,392.33,133.77,118.01,-0.12566,0.42
0,738.65,133.77,118.79,-0.12881,0.64
0,722.63,133.77,120.50,-0.13195,0.19
0,369.54,133.77,123.51,-0.13666,-0.11
0,721.80,141.89,124.23,-0.13823,0.21
0,810.79,141.89,125.94,-0.14137,-0.00
0,358.27,141.89,129.74,-0.14608,-0.24
0,218.68,141.89,131.52,-0.14923,0.02
0,657.90,141.89,131.36,-0.14923,-0.10
0,667.04,145.95,132.76,-0.15080,-0.47
0,548.55,145.95,134.75,-0.15237,-0.28
0,559.06,145.95,136.02,-0.15394,0.18
0,703.18,145.95,136.83,-0.15551,0.17
0,475.93,145.95,138.68,-0.15865,-0.05
0,607.03,145.95,139.07,-0.15865,-0.21
0,688.91,147.98,139.82,-0.15865,-0.19
0,463.22,147.98,141.52,-0.16022,-0.05
0,624.52,147.98,141.74,-0.16179,-0.00
0,635.93,147.98,142.53,-0.16179,-0.00
0,430.56,147.98,143.80,-0.16336,-0.03
0,553.13,147.98,143.90,-0.16336,0.01
0,606.67,149.00,144.33,-0.16336,0.01
0,558.67,149.00,145.07,-0.16493,-0.04
0,521.24,149.00,145.63,-0.16493,-0.08
0,638.79,149.00,145.68,-0.16493,0.01
0,582.15,149.00,146.31,-0.16493,-0.06
0,471.53,149.00,146.94,-0.16650,-0.02
0,-810.79,89.49,146.22,-0.16650,-0.00
0,-810.79,89.49,140.57,-0.16493,-0.12
0,-580.46,89.49,130.19,-0.15865,-0.17
0,810.79,89.49,119.29,-0.14608,-1.49
0,810.79,89.49,115.32,-0.13352,-2.73
0,-106.10,59.74,116.80,-0.12881,-1.06
0,-810.79,59.74,115.40,-0.12723,2.55
0,-810.79,59.74,107.62,-0.12252,1.58
0,-194.07,59.74,96.14,-0.10996,-1.46
0,810.79,59.74,85.82,-0.09425,-3.51
0,810.79,59.74,83.02,-0.07540,-2.98
0,810.79,104.88,85.09,-0.06912,2.30
0,663.80,104.88,89.27,-0.06912,2.30
0,141.68,104.88,92.77,-0.07383,4.64
0,440.61,104.88,93.17,-0.08168,3.10
0,810.79,104.88,93.49,-0.08796,0.97
0,538.37,104.88,95.88,-0.09111,0.07
0,-688.90,67.44,96.84,-0.09425,-0.47
0,-575.05,67.44,92.44,-0.09111,-0.82
0,605.44,67.44,85.58,-0.08482,-0.82
0,810.79,67.44,82.47,-0.07854,-1.55
0,125.68,67.44,83.49,-0.07540,-1.39
0,-261.98,108.72,83.44,-0.07540,0.90
0,810.79,108.72,82.81,-0.07383,1.21
0,810.79,108.72,85.17,-0.07540,0.32
0,651.25,108.72,90.09,-0.07854,0.38
0,97.05,108.72,93.96,-0.08011,0.66
0,397.08,108.72,94.66,-0.08168,0.41
0,810.79,129.37,94.93,-0.08639,0.05
0,810.79,129.37,97.66,-0.08796,0.15
0,810.79,129.37,102.33,-0.09268,0.27
0,810.79,129.37,107.98,-0.09582,0.27
0,-126.96,129.37,113.59,-0.10053,0.17
0,-195.66,129.37,115.54,-0.10681,0.41
0,810.79,139.69,114.84,-0.11310,0.41
0,810.79,139.69,115.90,-0.11781,0.00
0,810.79,139.69,119.49,-0.12409,-0.14
0,538.95,139.69,124.67,-0.12881,0.02
0,-253.00,139.69,128.88,-0.13666,0.32
0,-218.68,144.85,129.95,-0.14137,0.15
0,598.91,144.85,129.12,-0.14608,-0.05
0,810.79,144.85,130.40,-0.14765,-0.87
0,332.34,144.85,133.91,-0.15080,-0.87
0,324.02,144.85,135.16,-0.15237,-0.13
0,709.37,144.85,135.10,-0.15394,0.01
0,-112.31,87.42,136.57,-0.15551,-0.22
0,-810.79,87.42,135.15,-0.15551,-0.30
0,-810.79,87.42,127.76,-0.15237,-0.28
0,387.59,87.42,117.13,-0.14294,-1.04
0,810.79,87.42,109.65,-0.12881,-2.79
0,810.79,87.42,109.30,-0.11938,-1.84
0,357.94,118.72,111.49,-0.11781,-1.84
0,558.87,118.72,111.64,-0.11781,2.28
0,671.36,118.72,112.22,-0.12095,2.82
0,515.92,118.72,113.53,-0.12409,1.20
0,602.63,118.72,113.82,-0.12409,-0.46
0,648.03,118.72,114.34,-0.12409,0.02
0,-810.79,74.35,114.43,-0.12566,-0.17
0,-810.79,74.35,109.21,-0.12252,-0.11
0,384.76,74.35,100.65,-0.11310,-0.41
0,810.79,74.35,95.13,-0.10210,-2.04
0,415.50,74.35,95.40,-0.09425,-2.40
0,-160.39,112.18,95.71,-0.09268,0.72
0,755.95,112.18,94.78,-0.09268,2.72
0,810.79,112.18,96.05,-0.09425,1.28
0,491.15,112.18,100.06,-0.09739,0.16
0,159.74,112.18,102.42,-0.09896,0.49
0,556.21,112.18,102.27,-0.10053,0.42
0,810.79,131.10,103.05,-0.10367,0.02
0,810.79,131.10,106.35,-0.10681,0.12
0,620.08,131.10,111.33,-0.10996,0.12
0,62.49,131.10,115.47,-0.11624,0.47
0,327.30,131.10,116.39,-0.11938,0.37
0,810.79,131.10,116.56,-0.12409,0.17
0,810.79,140.56,119.23,-0.12881,-0.04
0,453.78,140.56,123.50,-0.13352,-0.24
0,184.26,140.56,126.29,-0.13823,0.11
0,628.45,140.56,126.53,-0.14294,0.22
0,754.45,140.56,128.03,-0.14451,-0.33
0,387.14,145.28,130.77,-0.14608,-0.73
0,703.42,145.28,131.44,-0.14765,-0.28
0,799.75,145.28,133.00,-0.14923,-0.16
0,389.19,145.28,135.81,-0.15237,0.15
0,326.75,145.28,137.05,-0.15551,0.29
0,651.11,145.28,137.03,-0.15708,-0.12
0,617.99,147.65,138.38,-0.15708,-0.50
0,495.76,147.65,139.83,-0.15865,-0.22
0,691.40,147.65,140.19,-0.15865,0.01
0,538.08,147.65,141.64,-0.16022,0.01
0,551.65,147.65,142.24,-0.16179,0.01
0,663.02,147.65,142.57,-0.16179,-0.01
0,-810.79,88.82,143.35,-0.16179,-0.06
0,-810.79,88.82,138.92,-0.16179,-0.04
0,-810.79,88.82,129.28,-0.15551,-0.23
0,810.79,88.82,117.87,-0.14294,-0.85
0,810.79,88.82,112.88,-0.13038,-2.23
0,521.59,59.41,113.79,-0.12409,-2.33
0,-810.79,59.41,113.93,-0.12409,1.01
0,-810.79,59.41,107.37,-0.11938,2.95
0,-449.29,59.41,96.44,-0.10838,0.06
0,810.79,59.41,85.72,-0.09425,-2.27
0,810.79,59.41,82.26,-0.07540,-3.87
0,184.04,44.70,83.89,-0.06754,-0.90
0,-810.79,44.70,83.18,-0.06754,4.16
0,-599.84,44.70,76.07,-0.06440,3.55
0,810.79,44.70,67.25,-0.05969,-0.31
0,810.79,44.70,64.20,-0.05027,-2.27
0,72.18,44.70,65.56,-0.04555,-0.96
0,-810.79,37.35,65.20,-0.04555,2.09
0,-292.97,37.35,59.57,-0.04241,1.06
0,771.92,37.35,53.67,-0.03770,1.06
0,726.23,37.35,52.12,-0.03299,-0.30
0,-105.36,37.35,52.95,-0.03142,-0.97
0,-605.64,37.35,52.56,-0.02985,0.34
0,-446.18,33.67,49.57,-0.02827,1.14
0,188.96,33.67,45.56,-0.02670,0.20
0,742.55,33.67,42.46,-0.02356,-0.28
0,337.67,33.67,42.80,-0.02199,-0.41
0,-30.78,33.67,42.82,-0.02199,0.25
0,-248.44,31.83,42.31,-0.02042,0.57
0,-447.32,31.83,41.66,-0.02042,0.19
0,-492.47,31.83,40.56,-0.02042,0.08
0,-418.87,31.83,39.20,-0.01885,0.05
0,-102.50,31.83,37.26,-0.01728,-0.15
0,246.30,31.83,35.49,-0.01571,-0.23
0,810.79,90.92,34.61,-0.01414,-0.22
0,810.79,90.92,37.71,-0.01571,0.29
0,810.79,90.92,44.32,-0.01728,0.52
0,810.79,90.92,53.02,-0.02199,0.78
0,638.82,90.92,62.30,-0.02513,0.78
0,-748.07,90.92,70.11,-0.03142,0.99
0,551.83,120.47,71.26,-0.03770,0.74
0,810.79,120.47,72.32,-0.04398,0.31
0,810.79,120.47,75.95,-0.04869,-0.00
0,810.79,120.47,81.06,-0.05498,-0.15
0,810.79,120.47,87.80,-0.06126,0.15
0,810.79,75.23,95.13,-0.06912,0.35
0,-810.79,75.23,101.11,-0.07697,0.47
0,-810.79,75.23,98.23,-0.08325,0.21
0,62.90,75.23,89.16,-0.08796,-0.46
0,810.79,75.23,81.53,-0.08011,-2.28
0,810.79,75.23,80.64,-0.07383,-2.77
0,639.03,52.61,83.88,-0.07383,-0.96
0,-810.79,52.61,86.02,-0.07540,1.84
0,-810.79,52.61,80.75,-0.07383,0.92
0,604.51,52.61,71.69,-0.06597,-1.48
0,810.79,52.61,67.01,-0.05498,-2.61
0,810.26,52.61,67.62,-0.04869,-1.13
0,810.79,101.31,70.08,-0.04869,-1.13
0,810.79,101.31,74.07,-0.05027,2.73
0,389.63,101.31,78.71,-0.05812,2.59
0,591.80,101.31,80.69,-0.06440,1.29
0,810.79,101.31,81.96,-0.06754,0.37
0,594.94,125.66,85.83,-0.07226,-0.18
0,804.67,125.66,90.10,-0.07854,-0.04
0,680.08,125.66,94.88,-0.08168,0.11
0,555.22,125.66,98.95,-0.08639,0.05
0,777.87,125.66,101.53,-0.09111,0.07
0,608.97,125.66,105.09,-0.09425,-0.14
0,723.02,137.84,107.59,-0.09739,-0.15
0,810.79,137.84,110.19,-0.10210,-0.11
0,695.59,137.84,115.09,-0.10838,0.28
0,218.99,137.84,119.24,-0.11467,0.50
0,503.01,137.84,120.46,-0.11938,0.20
0,810.79,137.84,121.07,-0.12566,-0.02
0,-241.52,83.91,123.22,-0.13038,-0.21
0,-810.79,83.91,121.65,-0.13509,-0.43
0,-507.79,83.91,113.98,-0.13195,-0.43
0,810.79,83.91,105.27,-0.12095,-1.36
0,810.79,83.91,102.41,-0.11153,-2.23
0,17.93,83.91,104.25,-0.10838,-2.21
0,302.99,116.96,104.34,-0.10838,0.76
0,810.79,116.96,104.20,-0.10838,2.31
0,537.74,116.96,106.97,-0.11153,0.95
0,324.05,116.96,108.72,-0.11310,-0.01
0,733.06,116.96,108.39,-0.11310,0.23
0,810.79,133.49,109.68,-0.11467,0.06
0,638.56,133.49,113.35,-0.11781,0.08
0,452.22,133.49,116.27,-0.12095,0.50
0,810.79,133.49,117.22,-0.12409,0.60
0,617.97,133.49,119.98,-0.12881,0.05
0,484.35,133.49,121.93,-0.13195,-0.02
0,-145.44,81.74,122.12,-0.13509,-0.17
0,-810.79,81.74,119.76,-0.13509,-0.48
0,-224.75,81.74,112.16,-0.13038,-0.98
0,810.79,81.74,104.85,-0.11938,-1.76
0,774.70,81.74,102.90,-0.11153,-1.76
0,-136.44,81.74,103.33,-0.10838,-1.97
0,299.90,115.88,102.36,-0.10681,0.53
0,810.79,115.88,101.90,-0.10524,2.14
0,702.80,115.88,104.77,-0.10838,0.71
0,159.19,115.88,107.74,-0.10996,0.27
0,372.27,115.88,107.94,-0.11153,0.68
0,776.47,132.95,107.80,-0.11310,0.23
0,810.79,132.95,110.20,-0.11467,-0.37
0,542.30,132.95,114.70,-0.11781,0.20
0,244.49,132.95,117.72,-0.12095,0.62
0,703.60,132.95,118.01,-0.12566,0.57
0,810.79,132.95,119.12,-0.13038,0.05
0,651.60,141.48,122.34,-0.13352,-0.14
0,419.60,141.48,125.30,-0.13823,0.13
0,759.10,141.48,126.14,-0.14137,0.09
0,683.35,141.48,128.44,-0.14451,-0.30
0,326.57,141.48,131.08,-0.14765,-0.27
0,591.01,141.48,131.40,-0.14923,-0.26
0,-387.44,85.74,131.34,-0.14923,-0.26
0,-810.79,85.74,128.44,-0.14765,-0.30
0,-393.15,85.74,120.05,-0.14294,-0.50
0,810.79,85.74,111.37,-0.13038,-0.55
0,810.79,85.74,108.52,-0.12252,-2.06
0,-173.21,85.74,109.86,-0.11781,-1.94
0,-810.79,57.86,107.78,-0.11624,1.24
0,-810.79,57.86,99.93,-0.10838,1.99
0,672.70,57.86,88.71,-0.09896,-0.55
0,810.79,57.86,82.54,-0.08168,-3.07
0,660.03,57.86,82.72,-0.07069,-3.03
0,-693.41,43.93,83.41,-0.06912,1.97
0,-810.79,43.93,79.02,-0.06754,3.89
0,381.85,43.93,70.20,-0.06126,0.99
0,810.79,43.93,64.86,-0.05341,-1.52
0,302.25,43.93,65.34,-0.04712,-1.75
0,-669.50,43.93,65.67,-0.04555,1.15
0,587.61,96.97,62.36,-0.04398,1.75
0,810.79,96.97,61.39,-0.04241,0.48
0,810.79,96.97,64.86,-0.04398,0.33
0,810.79,96.97,70.78,-0.04712,0.33
0,748.96,96.97,78.39,-0.05027,0.90
0,-459.36,96.97,84.39,-0.05498,0.66
0,-810.79,63.48,84.52,-0.06126,0.75
0,-64.41,63.48,77.72,-0.06440,0.28
0,810.79,63.48,71.26,-0.05969,-0.67
0,810.79,63.48,70.84,-0.05655,-1.57
0,71.89,63.48,74.42,-0.05812,-0.74
0,-576.66,106.75,75.65,-0.05969,0.71
0,810.79,106.75,73.72,-0.05812,0.22
0,810.79,106.75,75.14,-0.05969,-0.22
0,810.79,106.75,79.49,-0.06126,0.17
0,810.79,106.75,85.50,-0.06440,0.49
0,18.77,106.75,91.94,-0.06912,0.63
0,-18.57,128.38,94.85,-0.07383,0.58
0,810.79,128.38,95.27,-0.07854,0.29
0,810.79,128.38,97.23,-0.08168,-0.10
0,810.79,128.38,101.35,-0.08639,0.01
0,810.79,128.38,106.97,-0.09268,0.29
0,88.88,128.38,112.65,-0.09739,0.29
0,-810.79,79.19,114.73,-0.10367,0.24
0,-810.79,79.19,109.00,-0.10996,0.19
0,739.78,79.19,99.00,-0.10681,-0.07
0,810.79,79.19,93.49,-0.09896,-1.94
0,810.79,79.19,94.01,-0.09425,-2.69
0,-357.93,54.59,97.13,-0.09268,-1.10
0,-810.79,54.59,95.16,-0.09268,1.84
0,-610.41,54.59,86.82,-0.08796,0.69
0,810.79,54.59,77.72,-0.07697,-1.56
0,810.79,54.59,74.26,-0.06440,-3.16
0,178.79,54.59,75.84,-0.05812,-1.29
0,-810.79,42.29,75.85,-0.05812,3.27
0,-516.59,42.29,70.19,-0.05655,2.60
0,681.93,42.29,62.96,-0.05027,-0.58
0,810.79,42.29,59.79,-0.04398,-1.99
0,-72.88,42.29,61.15,-0.04084,-0.48
0,-743.07,42.29,60.81,-0.03927,1.88
0,810.79,96.15,56.93,-0.03613,0.73
0,810.79,96.15,56.50,-0.03613,0.73
0,810.79,96.15,59.96,-0.03770,0.21
0,810.79,96.15,66.18,-0.04084,0.46
0,810.79,96.15,73.82,-0.04398,0.68
0,-48.57,96.15,81.56,-0.04869,0.76
0,-135.11,123.08,86.38,-0.05498,0.65
0,789.59,123.08,87.75,-0.05969,0.62
0,810.79,123.08,89.70,-0.06597,0.34
0,810.79,123.08,93.78,-0.07226,0.02
0,810.79,123.08,99.10,-0.08011,0.11
0,-212.47,76.54,105.18,-0.08639,0.31
0,-810.79,76.54,105.66,-0.09268,0.24
0,-694.69,76.54,98.61,-0.09739,-0.44
0,810.79,76.54,89.65,-0.09268,-1.75
0,810.79,76.54,86.39,-0.08482,-2.67
0,810.79,76.54,88.62,-0.08168,-1.31
0,-810.79,53.26,91.71,-0.08325,1.62
0,-810.79,53.26,87.98,-0.08325,1.30
0,-100.16,53.26,79.19,-0.07697,-1.05
0,810.79,53.26,71.59,-0.06440,-1.05
0,810.79,53.26,70.20,-0.05498,-2.95
0,-115.04,53.26,72.47,-0.05184,-1.87
0,-810.79,41.63,71.35,-0.05184,2.65
0,-174.10,41.63,64.89,-0.05027,2.67
0,810.79,41.63,58.48,-0.04398,-0.28
0,717.81,41.63,57.65,-0.03770,-1.79
0,-306.15,41.63,58.89,-0.03613,-0.78
0,-456.16,95.82,57.73,-0.03613,1.61
0,810.79,95.82,55.71,-0.03456,0.84
0,810.79,95.82,58.33,-0.03613,0.22
0,810.79,95.82,63.90,-0.03770,0.38
0,810.79,95.82,71.08,-0.04084,0.62
0,-143.39,95.82,78.53,-0.04555,0.73
0,-810.79,62.91,81.23,-0.05027,0.63
0,-330.87,62.91,76.57,-0.05498,0.27
0,810.79,62.91,70.31,-0.05498,-0.59
0,810.79,62.91,69.25,-0.05341,-1.26
0,129.73,62.91,72.30,-0.05498,-0.10
0,-704.65,62.91,73.63,-0.05655,-0.10
0,-536.61,46.45,70.24,-0.05498,0.00
0,79.14,46.45,65.31,-0.05027,-0.40
0,785.16,46.45,60.86,-0.04555,-0.54
0,401.32,46.45,60.49,-0.04241,-1.06
0,-75.43,46.45,60.25,-0.04084,-0.45
0,-355.93,46.45,59.43,-0.03927,0.92
0,810.79,98.23,58.74,-0.03927,0.57
0,810.79,98.23,61.78,-0.04084,0.32
0,810.79,98.23,67.59,-0.04398,0.32
0,483.01,98.23,74.87,-0.04712,0.69
0,-371.94,98.23,80.27,-0.05027,0.69
0,75.78,124.12,81.63,-0.05498,0.59
0,810.79,124.12,82.15,-0.05969,0.26
0,810.79,124.12,85.06,-0.06440,-0.05
0,810.79,124.12,89.92,-0.06912,0.09
0,810.79,124.12,95.81,-0.07540,0.33
0,693.22,124.12,103.06,-0.08168,0.46
0,-11.09,137.07,108.57,-0.08954,0.43
0,294.08,137.07,110.87,-0.09582,0.43
0,810.79,137.07,111.44,-0.10210,0.11
0,810.79,137.07,114.17,-0.10996,-0.21
0,691.86,137.07,118.96,-0.11624,-0.12
0,149.81,137.07,122.75,-0.12252,-0.07
0,-810.79,83.53,123.16,-0.12881,0.15
0,-810.79,83.53,117.10,-0.13195,-0.20
0,682.32,83.53,107.73,-0.12409,-1.53
0,810.79,83.53,102.92,-0.11467,-2.52
0,423.54,83.53,103.89,-0.10838,-2.42
0,-756.74,56.76,104.68,-0.10838,0.47
0,-810.79,56.76,99.97,-0.10524,2.03
0,-118.03,56.76,90.69,-0.09739,-0.20
0,810.79,56.76,82.23,-0.08325,-2.45
0,801.07,56.76,81.00,-0.07069,-3.15
0,-375.21,56.76,81.73,-0.06754,0.86
0,38.41,103.39,79.73,-0.06597,3.70
0,810.79,103.39,77.79,-0.06597,1.68
0,810.79,103.39,79.81,-0.06754,-0.19
0,810.79,103.39,84.66,-0.06912,0.79
0,269.94,103.39,90.69,-0.07226,0.79
0,-451.52,103.39,94.46,-0.07697,0.81
0,-810.79,66.69,93.25,-0.08011,0.60
0,24.55,66.69,86.79,-0.08011,0.02
0,810.79,66.69,81.01,-0.07540,-1.05
0,671.75,66.69,81.00,-0.07383,-1.40
0,-231.22,66.69,82.06,-0.07226,-0.69
0,-511.83,108.35,81.23,-0.07226,0.72
0,810.79,108.35,79.59,-0.07069,0.31
0,810.79,108.35,81.70,-0.07069,-0.00
0,810.79,108.35,86.83,-0.07383,0.41
0,70.98,108.35,92.53,-0.07854,0.64
0,-61.86,108.35,94.69,-0.08011,0.57
0,29.06,69.17,94.28,-0.08325,0.17
0,-387.20,69.17,92.45,-0.08639,-0.18
0,-363.68,69.17,89.43,-0.08482,-0.68
0,19.05,69.17,85.68,-0.08168,-0.53
0,560.06,69.17,81.94,-0.07854,-0.90
0,513.56,69.17,80.72,-0.07383,-0.96
0,810.79,109.59,81.04,-0.07226,-0.96
0,810.79,109.59,84.22,-0.07383,0.14
0,448.98,109.59,89.52,-0.07697,1.40
0,159.33,109.59,92.72,-0.08168,1.22
0,703.65,109.59,92.94,-0.08482,0.63
0,810.79,109.59,94.41,-0.08796,0.01
0,810.79,129.80,98.25,-0.09111,-0.45
0,598.22,129.80,103.69,-0.09268,-0.07
0,299.87,129.80,107.68,-0.09582,0.06
0,810.79,129.80,108.70,-0.09896,0.14
0,810.79,129.80,111.42,-0.10210,0.13
0,9.26,79.90,114.98,-0.10838,0.43
0,-810.79,79.90,114.30,-0.11310,0.39
0,-393.19,79.90,106.92,-0.11467,-0.20
0,810.79,79.90,98.67,-0.10681,-1.67
0,810.79,79.90,96.21,-0.10053,-2.24
0,153.69,79.90,98.26,-0.09896,-0.72
0,-164.82,114.96,99.03,-0.09896,1.63
0,670.40,114.96,98.28,-0.09896,1.00
0,810.79,114.96,99.60,-0.09896,1.00
0,427.13,114.96,103.15,-0.10210,-0.18
0,322.70,114.96,104.76,-0.10524,0.44
0,786.33,114.96,104.55,-0.10681,0.58
0,810.79,132.48,106.47,-0.10838,0.02
0,810.79,132.48,110.63,-0.11153,-0.27
0,234.78,132.48,115.30,-0.11467,0.26
0,289.10,132.48,117.07,-0.11781,0.41
0,810.79,132.48,117.06,-0.12252,0.19
0,760.08,81.24,119.22,-0.12566,0.10
0,-810.79,81.24,120.77,-0.12881,0.01
0,-810.79,81.24,115.64,-0.12881,-0.23
0,288.44,81.24,106.06,-0.12095,-1.26
0,810.79,81.24,99.25,-0.10838,-2.57
0,810.79,81.24,98.77,-0.10053,-2.38
0,-576.91,55.62,101.03,-0.09896,1.08
0,-810.79,55.62,97.91,-0.09896,2.56
0,-519.27,55.62,89.22,-0.09111,0.02
0,810.79,55.62,79.90,-0.08168,-2.33
0,810.79,55.62,76.68,-0.06754,-2.33
0,275.16,55.62,77.88,-0.06126,-3.11
0,438.53,102.81,77.95,-0.06126,0.89
0,810.79,102.81,78.46,-0.06126,3.59
0,810.79,102.81,81.77,-0.06754,2.25
0,411.54,102.81,87.08,-0.07226,0.50
0,-70.76,102.81,90.36,-0.07540,0.46
0,346.73,102.81,90.39,-0.07854,0.27
0,810.79,126.41,90.61,-0.08011,-0.28
0,810.79,126.41,93.52,-0.08325,-0.49
0,810.79,126.41,97.94,-0.08482,0.05
0,810.79,126.41,104.15,-0.08954,0.43
0,128.20,126.41,110.38,-0.09425,0.41
0,-312.37,138.21,113.84,-0.10053,0.42
0,511.05,138.21,114.05,-0.10681,0.33
0,810.79,138.21,114.91,-0.11153,0.14
0,810.79,138.21,118.22,-0.11781,-0.09
0,438.08,138.21,122.92,-0.12409,0.13
0,13.10,138.21,125.99,-0.13038,0.21
0,463.99,144.11,126.29,-0.13666,0.21
0,810.79,144.11,126.77,-0.14137,-0.22
0,702.03,144.11,130.02,-0.14451,-0.30
0,143.73,144.11,133.43,-0.14923,-0.47
0,269.47,144.11,134.21,-0.15080,-0.15
0,653.42,144.11,134.21,-0.15237,-0.41
0,-715.58,87.05,134.52,-0.15237,-0.63
0,-810.79,87.05,130.53,-0.15080,-0.40
0,-331.57,87.05,121.36,-0.14451,-0.32
0,810.79,87.05,112.43,-0.13195,-1.22
0,810.79,87.05,109.65,-0.12252,-2.63
0,-65.41,118.53,111.33,-0.11781,-1.06
0,199.27,118.53,111.25,-0.11781,2.54
0,732.59,118.53,110.47,-0.11781,2.13
0,562.91,118.53,112.16,-0.12095,0.38
0,352.31,118.53,113.48,-0.12252,0.01
0,639.89,118.53,113.16,-0.12095,0.10
0,810.79,134.27,114.01,-0.12252,-0.06
0,672.50,134.27,117.14,-0.12409,0.20
0,393.93,134.27,119.97,-0.12723,0.20
0,756.60,134.27,120.44,-0.13038,0.57
0,772.63,134.27,122.25,-0.13195,0.30
0,376.30,134.27,124.92,-0.13666,-0.07
0,-579.90,82.13,125.17,-0.13823,0.23
0,-810.79,82.13,121.14,-0.13823,-0.03
0,55.33,82.13,112.41,-0.13038,-0.95
0,810.79,82.13,105.58,-0.11938,-1.62
0,572.10,82.13,104.83,-0.11153,-2.72
0,-475.58,82.13,105.29,-0.10838,-0.42
0,-810.79,56.06,101.77,-0.10681,2.48
0,-409.19,56.06,93.01,-0.09896,0.66
0,810.79,56.06,83.93,-0.08796,-1.65
0,810.79,56.06,81.13,-0.07383,-3.12
0,-102.10,56.06,81.62,-0.06754,-0.50
0,-810.79,43.03,80.28,-0.06597,3.42
0,-418.97,43.03,74.07,-0.06126,1.94
0,726.88,43.03,66.66,-0.05655,-0.55
0,785.62,43.03,63.96,-0.04869,-1.66
0,-257.15,43.03,64.72,-0.04555,-1.66
0,-724.02,43.03,63.52,-0.04398,0.08
0,763.02,96.52,59.07,-0.04084,1.77
0,810.79,96.52,57.79,-0.03927,0.51
0,810.79,96.52,61.08,-0.04084,-0.03
0,810.79,96.52,67.32,-0.04398,0.56
0,810.79,96.52,75.28,-0.04712,1.01
0,-195.78,96.52,82.82,-0.05184,0.86
0,-810.79,63.26,85.24,-0.05812,0.76
0,-770.37,63.26,79.57,-0.06283,0.27
0,810.79,63.26,71.25,-0.05969,-0.78
0,810.79,63.26,68.36,-0.05498,-1.84
0,810.79,63.26,70.83,-0.05341,-1.22
0,-544.88,46.62,74.90,-0.05655,1.01
0,-810.79,46.62,73.19,-0.05655,0.85
0,-75.70,46.62,65.92,-0.05184,-0.68
0,810.79,46.62,59.39,-0.04398,-1.67
0,810.79,46.62,58.96,-0.03927,-1.49
0,-243.74,46.62,61.63,-0.03770,1.22
0,-107.12,98.32,61.39,-0.03927,1.22
0,810.79,98.32,60.43,-0.03770,1.59
0,810.79,98.32,63.50,-0.03927,0.29
0,810.79,98.32,69.01,-0.04241,0.17
0,753.39,98.32,76.07,-0.04555,0.60
0,-241.50,98.32,81.81,-0.05027,0.69
0,194.96,124.17,84.11,-0.05498,0.61
0,810.79,124.17,84.80,-0.05969,0.38
0,810.79,124.17,87.92,-0.06597,0.11
0,810.79,124.17,92.92,-0.07226,-0.02
0,810.79,124.17,98.88,-0.07697,0.28
0,176.13,124.17,105.76,-0.08482,0.41
0,-810.79,77.08,108.14,-0.09111,0.32
0,-810.79,77.08,102.64,-0.09582,-0.17
0,802.00,77.08,92.79,-0.09425,-1.00
0,810.79,77.08,87.20,-0.08639,-2.55
0,810.79,77.08,87.74,-0.08168,-2.00
0,-140.34,53.54,91.58,-0.08325,0.90
0,-810.79,53.54,91.06,-0.08325,1.88
0,-810.79,53.54,83.84,-0.08011,1.88
0,810.79,53.54,74.28,-0.07069,-0.58
0,810.79,53.54,70.03,-0.05812,-2.73
0,654.22,53.54,71.31,-0.05027,-2.79
0,348.25,101.77,72.92,-0.05184,1.26
0,810.79,101.77,73.47,-0.05341,3.45
0,810.79,101.77,76.49,-0.05969,2.18
0,810.79,101.77,81.81,-0.06440,0.24
0,-27.44,101.77,86.97,-0.06754,0.19
0,-82.55,101.77,88.76,-0.07069,0.34
0,-414.26,65.88,87.79,-0.07540,0.02
0,-481.02,65.88,85.21,-0.07540,-0.43
0,-124.86,65.88,81.64,-0.07226,-0.96
0,440.40,65.88,77.88,-0.06912,-0.75
0,646.85,65.88,75.95,-0.06440,-0.96
0,419.81,107.95,75.95,-0.06283,-0.26
0,810.79,107.95,77.05,-0.06283,0.68
0,810.79,107.95,81.39,-0.06597,0.91
0,416.57,107.95,87.37,-0.07069,0.90
0,-58.01,107.95,91.17,-0.07540,0.90
0,322.67,107.95,91.81,-0.07854,0.74
0,810.79,128.98,92.06,-0.08168,0.10
0,810.79,128.98,94.64,-0.08482,-0.34
0,810.79,128.98,98.86,-0.08796,-0.15
0,810.79,128.98,104.90,-0.09111,0.23
0,174.00,128.98,111.01,-0.09582,0.22
0,-259.89,128.98,114.41,-0.10053,0.24
0,-810.79,79.49,114.11,-0.10681,0.28
0,-422.40,79.49,107.83,-0.11153,0.11
0,810.79,79.49,99.97,-0.10681,-0.87
0,810.79,79.49,97.22,-0.10053,-1.87
0,51.29,79.49,98.73,-0.10053,-1.14
0,-707.72,79.49,98.60,-0.09896,0.63
0,730.38,114.75,95.69,-0.09739,0.41
0,810.79,114.75,96.01,-0.09582,-0.09
0,810.79,114.75,100.22,-0.09896,0.38
0,-46.37,114.75,105.01,-0.10367,0.72
0,-195.56,114.75,106.49,-0.10681,0.64
0,449.24,132.38,105.94,-0.10838,0.64
0,810.79,132.38,106.44,-0.10996,0.06
0,810.79,132.38,109.85,-0.11153,-0.69
0,549.00,132.38,115.08,-0.11467,0.06
0,-25.00,132.38,118.86,-0.11624,0.37
0,260.91,132.38,119.44,-0.12095,0.39
0,32.36,81.19,118.59,-0.12409,0.25
0,-810.79,81.19,116.56,-0.12566,0.03
0,-235.54,81.19,110.06,-0.12252,-0.78
0,802.62,81.19,103.30,-0.11467,-1.20
0,682.70,81.19,101.29,-0.10681,-1.89
0,-108.15,81.19,101.32,-0.10367,-0.92
0,475.48,115.60,100.31,-0.10210,1.29
0,810.79,115.60,100.58,-0.10210,1.13
0,575.04,115.60,104.05,-0.10524,0.33
0,149.66,115.60,106.66,-0.10681,0.61
0,536.12,115.60,106.40,-0.10838,0.59
0,584.95,72.80,106.99,-0.10996,-0.25
0,-800.11,72.80,107.05,-0.10996,-0.33
0,-603.06,72.80,101.94,-0.10681,-0.33
0,574.44,72.80,94.51,-0.10053,-0.31
0,810.79,72.80,90.96,-0.09111,-1.19
0,-0.12,72.80,91.90,-0.08796,-2.00
0,-810.79,51.39,91.20,-0.08482,0.09
0,-714.63,51.39,85.28,-0.08168,2.05
0,512.08,51.39,77.18,-0.07383,0.04
0,810.79,51.39,72.55,-0.06283,-1.93
0,85.65,51.39,73.34,-0.05655,-2.19
0,-671.35,51.39,72.91,-0.05498,1.32
0,-523.55,40.69,68.59,-0.05184,2.66
0,132.45,40.69,63.02,-0.04712,0.26
0,803.88,40.69,58.32,-0.04241,-0.92
0,218.04,40.69,58.22,-0.03770,-1.08
0,-415.27,40.69,58.04,-0.03613,0.83
0,-610.92,95.35,56.37,-0.03456,1.29
0,810.79,95.35,54.08,-0.03299,0.26
0,810.79,95.35,56.28,-0.03299,0.16
0,810.79,95.35,61.90,-0.03613,0.60
0,810.79,95.35,68.87,-0.04084,0.60
0,12.78,95.35,77.07,-0.04398,0.69
0,-401.32,122.68,81.28,-0.04869,0.72
0,810.79,122.68,81.43,-0.05341,0.51
0,810.79,122.68,82.87,-0.05812,0.16
0,810.79,122.68,86.78,-0.06283,-0.04
0,810.79,122.68,92.38,-0.06912,0.11
0,810.79,122.68,98.78,-0.07540,0.33
0,-810.79,76.34,105.71,-0.08325,0.55
0,-810.79,76.34,105.50,-0.08954,0.44
0,-810.79,76.34,97.92,-0.09425,-0.13
0,810.79,76.34,87.51,-0.08796,-1.63
0,810.79,76.34,83.50,-0.08011,-2.86
0,810.79,76.34,85.21,-0.07540,-2.02
0,810.79,113.18,89.91,-0.07697,1.41
0,340.05,113.18,95.79,-0.08011,2.19
0,-151.68,113.18,99.30,-0.08482,1.31
0,258.99,113.18,99.54,-0.09268,0.41
0,810.79,113.18,98.96,-0.09425,-0.21
0,600.38,71.58,100.80,-0.09739,-0.57
0,-810.79,71.58,101.76,-0.09896,-0.57
0,-585.68,71.58,96.84,-0.09739,-0.33
0,741.59,71.58,89.50,-0.09111,-0.67
0,810.79,71.58,86.51,-0.08325,-1.43
0,141.99,71.58,87.87,-0.08011,-1.90
0,-810.79,50.79,87.66,-0.07854,0.41
0,-662.14,50.79,82.02,-0.07540,1.71
0,537.00,50.79,74.32,-0.06754,-0.19
0,810.79,50.79,70.08,-0.05812,-1.93
0,56.83,50.79,71.13,-0.05184,-1.91
0,-660.38,50.79,70.78,-0.05184,1.75
0,-583.24,40.39,66.75,-0.04869,2.11
0,326.64,40.39,60.57,-0.04398,-0.11
0,810.79,40.39,56.66,-0.03927,-1.13
0,32.58,40.39,57.43,-0.03456,-0.75
0,-536.60,40.39,57.09,-0.03456,1.17
0,-502.97,35.19,54.99,-0.03456,0.97
0,-197.45,35.19,51.26,-0.03142,0.06
0,346.67,35.19,47.54,-0.02827,-0.53
0,670.75,35.19,45.16,-0.02513,-0.53
0,317.49,35.19,45.16,-0.02356,-0.54
0,-5.07,35.19,44.96,-0.02356,0.39
0,431.74,92.60,44.84,-0.02356,0.77
0,810.79,92.60,46.71,-0.02356,0.22
0,810.79,92.60,52.17,-0.02670,0.28
0,810.79,92.60,59.71,-0.02985,0.40
0,-69.95,92.60,67.47,-0.03299,0.83
0,-503.59,92.60,71.71,-0.03770,0.63
0,-609.08,61.30,71.88,-0.04241,0.33
0,-111.16,61.30,68.86,-0.04555,0.04
0,727.36,61.30,65.26,-0.04712,-0.45
0,638.80,61.30,65.35,-0.04555,-1.09
0,45.30,61.30,66.66,-0.04712,-0.25
0,-74.11,61.30,66.34,-0.04712,-0.06
0,-580.75,45.64,65.47,-0.04712,-0.23
0,-438.41,45.64,62.40,-0.04555,-0.11
0,176.09,45.64,58.36,-0.04241,-0.31
0,737.22,45.64,55.13,-0.03770,-0.84
0,298.52,45.64,55.48,-0.03613,-0.84
0,286.71,97.83,55.61,-0.03456,-0.53
0,810.79,97.83,56.72,-0.03456,0.67
0,810.79,97.83,61.18,-0.03770,0.74
0,810.79,97.83,67.66,-0.04084,0.47
0,155.52,97.83,74.98,-0.04398,0.62
0,-434.68,97.83,79.47,-0.04869,0.68
0,-672.91,63.91,80.18,-0.05341,0.51
0,-249.83,63.91,76.59,-0.05655,0.12
0,764.21,63.91,71.79,-0.05655,-0.37
0,810.79,63.91,70.80,-0.05498,-1.27
0,58.39,63.91,72.55,-0.05655,-0.16
0,-283.49,63.91,72.48,-0.05655,-0.13
0,810.79,106.96,71.54,-0.05655,-0.10
0,810.79,106.96,73.96,-0.05655,0.02
0,810.79,106.96,78.98,-0.05969,0.30
0,616.43,106.96,85.13,-0.06283,0.43
0,-177.12,106.96,90.15,-0.06597,0.57
0,60.84,128.49,91.51,-0.07069,0.32
0,810.79,128.49,91.40,-0.07383,0.32
0,810.79,128.49,93.58,-0.07697,0.06
0,810.79,128.49,97.52,-0.08168,-0.05
0,810.79,128.49,103.30,-0.08639,0.11
0,771.43,128.49,109.83,-0.09268,0.29
0,-225.56,139.25,115.59,-0.09896,0.44
0,-56.29,139.25,117.75,-0.10524,0.37
0,810.79,139.25,117.47,-0.11153,0.19
0,810.79,139.25,119.26,-0.11938,-0.05
0,791.81,139.25,123.08,-0.12409,-0.18
0,80.34,139.25,127.22,-0.13195,0.08
0,-810.79,84.62,128.10,-0.13666,-0.13
0,-810.79,84.62,122.64,-0.13980,-0.32
0,255.24,84.62,112.82,-0.13195,-1.56
0,810.79,84.62,105.86,-0.12095,-2.50
0,810.79,84.62,105.32,-0.11310,-2.65
0,-433.35,84.62,107.13,-0.11153,0.61
0,-810.79,57.31,104.22,-0.10996,2.56
0,-698.93,57.31,95.42,-0.10210,-0.05
0,810.79,57.31,85.07,-0.09111,-2.43
0,810.79,57.31,81.18,-0.07540,-2.43
0,222.28,57.31,82.13,-0.06754,-3.36
0,-810.79,43.65,81.81,-0.06754,0.59
0,-689.67,43.65,76.28,-0.06440,3.90
0,616.97,43.65,68.36,-0.05969,1.44
0,810.79,43.65,64.22,-0.05184,-1.14
0,77.16,43.65,64.78,-0.04555,-1.81
0,-645.25,43.65,64.40,-0.04555,0.58
0,-509.80,36.82,60.69,-0.04241,1.93
0,171.40,36.82,55.55,-0.03927,0.33
0,740.37,36.82,51.54,-0.03456,-0.55
0,337.40,36.82,51.21,-0.02985,-0.92
0,-175.72,36.82,51.05,-0.02985,0.37
0,-482.96,36.82,50.25,-0.02827,1.24
0,-529.81,33.41,48.27,-0.02670,0.31
0,-120.14,33.41,45.10,-0.02513,-0.03
0,383.60,33.41,42.06,-0.02356,-0.18
0,608.10,33.41,40.38,-0.02042,-0.39
0,343.78,33.41,40.41,-0.01885,-0.03
0,416.57,91.71,40.39,-0.01885,-0.03
0,810.79,91.71,42.10,-0.01885,0.55
0,810.79,91.71,47.56,-0.02199,0.35
0,810.79,91.71,55.34,-0.02513,0.39
0,185.43,91.71,63.77,-0.02827,0.67
0,-589.97,91.71,69.37,-0.03299,0.78
0,-406.71,60.85,69.78,-0.03927,0.66
0,-253.92,60.85,68.11,-0.04241,0.15
0,268.19,60.85,65.49,-0.04555,-0.17
0,770.75,60.85,63.45,-0.04398,-0.95
0,331.85,60.85,64.60,-0.04398,-0.50
0,177.60,60.85,64.56,-0.04398,-0.38
0,-104.83,45.42,63.65,-0.04398,-0.05
0,-408.27,45.42,62.35,-0.04398,-0.18
0,-479.05,45.42,60.46,-0.04241,-0.05
0,-308.28,45.42,58.02,-0.04084,-0.22
0,10.92,45.42,55.45,-0.03770,-0.51
0,283.91,97.72,53.33,-0.03456,-0.58
0,810.79,97.72,53.40,-0.03299,-0.19
0,810.79,97.72,57.54,-0.03299,-0.19
0,810.79,97.72,64.32,-0.03770,1.10
0,810.79,97.72,72.01,-0.04084,1.07
0,-406.27,97.72,79.24,-0.04712,0.92
0,-752.36,63.86,80.91,-0.05184,0.74
0,-132.23,63.86,76.57,-0.05655,0.31
0,810.79,63.86,71.60,-0.05655,-0.25
0,810.79,63.86,71.13,-0.05498,-1.48
0,-18.07,63.86,73.19,-0.05655,-0.32
0,-450.98,63.86,73.31,-0.05655,-0.27
0,-727.16,46.92,71.63,-0.05655,-0.03
0,-195.52,46.92,66.74,-0.05341,-0.37
0,615.76,46.92,61.73,-0.04712,-0.73
0,614.95,46.92,60.22,-0.04398,-1.18
0,-49.58,46.92,60.68,-0.04084,-0.17
0,-430.17,46.92,60.17,-0.04084,1.27
0,810.79,98.47,59.32,-0.03927,0.40
0,810.79,98.47,62.10,-0.04084,0.37
0,810.79,98.47,67.68,-0.04398,0.42
0,525.06,98.47,74.65,-0.04712,0.42
0,-311.03,98.47,80.16,-0.05027,0.79
0,-463.36,64.23,81.85,-0.05498,0.60
0,-518.16,64.23,79.61,-0.05812,0.34
0,283.70,64.23,75.07,-0.05969,0.04
0,810.79,64.23,71.83,-0.05655,-1.07
0,313.71,64.23,73.09,-0.05655,-0.79
0,-221.14,64.23,73.61,-0.05655,-0.14
0,-619.18,47.11,72.62,-0.05655,0.08
0,-485.41,47.11,68.80,-0.05498,-0.25
0,260.50,47.11,63.74,-0.04869,-0.54
0,799.84,47.11,60.19,-0.04398,-1.30
0,207.81,47.11,60.57,-0.03927,-0.99
0,-233.97,47.11,60.28,-0.03927,1.02
0,810.79,98.56,59.51,-0.03770,1.09
0,810.79,98.56,61.93,-0.03927,0.35
0,810.79,98.56,67.20,-0.04241,0.38
0,808.45,98.56,74.09,-0.04398,0.80
0,-225.42,98.56,80.24,-0.04869,0.69
0,-177.42,124.29,82.41,-0.05341,0.69
0,810.79,124.29,82.69,-0.05812,0.53
0,810.79,124.29,84.97,-0.06283,0.23
0,810.79,124.29,89.43,-0.06754,-0.09
0,810.79,124.29,95.34,-0.07383,0.08
0,810.79,124.29,101.98,-0.07854,0.32
0,-41.13,137.15,108.31,-0.08639,0.38
0,195.52,137.15,110.90,-0.09268,0.40
0,810.79,137.15,111.34,-0.09896,-0.03
0,810.79,137.15,113.78,-0.10524,-0.29
0,810.79,137.15,118.35,-0.11153,-0.10
0,190.07,137.15,122.64,-0.11781,0.05
0,-810.79,83.57,123.94,-0.12409,0.12
0,-810.79,83.57,118.93,-0.13038,-0.12
0,354.63,83.57,109.40,-0.12409,-1.65
0,810.79,83.57,103.02,-0.11310,-2.81
0,810.79,83.57,102.83,-0.10681,-2.28
0,-438.74,83.57,104.70,-0.10681,0.78
0,147.99,116.79,103.97,-0.10681,2.10
0,810.79,116.79,103.12,-0.10681,2.10
0,693.81,116.79,105.69,-0.10838,0.50
0,204.54,116.79,108.50,-0.10996,0.04
0,484.46,116.79,108.51,-0.11153,0.47
0,502.79,73.39,108.48,-0.11153,0.07
0,-730.16,73.39,108.00,-0.11153,-0.28
0,-583.41,73.39,102.88,-0.10996,-0.18
0,596.82,73.39,95.47,-0.10210,-0.51
0,810.79,73.39,92.21,-0.09268,-1.68
0,79.35,73.39,92.51,-0.08796,-1.58
0,-810.79,51.69,91.62,-0.08639,0.96
0,-712.85,51.69,85.89,-0.08325,1.61
0,455.39,51.69,77.93,-0.07383,-0.45
0,810.79,51.69,73.19,-0.06440,-2.33
0,167.97,51.69,73.53,-0.05655,-1.47
0,-542.12,51.69,73.03,-0.05498,2.21
0,-675.13,40.84,69.45,-0.05341,2.13
0,90.43,40.84,63.42,-0.04869,-0.20
0,810.79,40.84,58.33,-0.04241,-1.18
0,248.42,40.84,58.40,-0.03770,-1.18
0,-405.03,40.84,58.38,-0.03613,-0.72
0,-606.00,35.42,56.68,-0.03456,1.27
0,-363.89,35.42,53.22,-0.03299,0.98
0,188.60,35.42,49.25,-0.02985,0.03
0,696.08,35.42,46.03,-0.02513,-0.60
0,305.34,35.42,46.12,-0.02356,-0.60
0,-148.83,35.42,46.22,-0.02356,0.57
0,-516.28,32.70,45.96,-0.02199,0.87
0,-521.36,32.70,44.17,-0.02199,0.21
0,-83.69,32.70,41.35,-0.02042,0.04
0,488.80,32.70,38.47,-0.01885,-0.16
0,579.99,32.70,37.67,-0.01728,-0.38
0,147.41,32.70,38.43,-0.01571,0.04
0,-82.29,31.35,38.32,-0.01571,0.43
0,-288.24,31.35,38.14,-0.01571,0.23
0,-543.39,31.35,38.12,-0.01571,0.08
0,-436.80,31.35,36.83,-0.01571,0.06
0,-30.36,31.35,34.84,-0.01414,-0.08
0,422.04,31.35,33.00,-0.01257,-0.08
0,575.61,30.67,32.33,-0.01257,-0.22
0,283.13,30.67,33.07,-0.01257,-0.08
0,204.46,30.67,32.98,-0.01257,0.16
0,199.15,30.67,32.74,-0.01257,0.17
0,116.08,30.67,32.75,-0.01257,0.06
0,492.02,90.34,32.75,-0.01257,0.04
0,810.79,90.34,34.84,-0.01257,0.02
0,810.79,90.34,40.72,-0.01414,0.04
0,810.79,90.34,49.07,-0.01728,0.27
0,529.09,90.34,58.46,-0.02199,0.71
0,-731.27,90.34,66.11,-0.02670,0.85
0,480.22,120.18,66.67,-0.03142,0.52
0,810.79,120.18,67.44,-0.03613,0.03
0,810.79,120.18,70.67,-0.04241,-0.16
0,810.79,120.18,76.20,-0.04712,0.06
0,810.79,120.18,82.75,-0.05184,0.17
0,810.79,120.18,90.50,-0.05812,0.45
0,-343.88,75.09,98.33,-0.06597,0.54
0,-810.79,75.09,100.29,-0.07383,0.54
0,-810.79,75.09,94.41,-0.08011,0.43
0,810.79,75.09,84.37,-0.07854,-0.30
0,810.79,75.09,79.68,-0.07226,-2.15
0,810.79,112.55,80.86,-0.06912,-2.73
0,810.79,112.55,85.52,-0.07069,-0.94
0,810.79,112.55,91.93,-0.07226,1.95
0,-91.02,112.55,97.37,-0.07854,1.53
0,-270.50,112.55,99.60,-0.08482,0.85
0,392.82,112.55,98.95,-0.08954,0.25
0,468.85,71.27,98.74,-0.09111,-0.34
0,-522.74,71.27,98.44,-0.09268,-0.64
0,-556.93,71.27,94.90,-0.09111,-0.72
0,305.65,71.27,89.19,-0.08796,-0.60
0,810.79,71.27,85.42,-0.08168,-1.39
0,196.67,71.27,85.98,-0.07697,-1.07
0,-810.79,50.63,85.72,-0.07697,0.89
0,-810.79,50.63,80.94,-0.07383,0.62
0,540.45,50.63,72.80,-0.06440,-1.15
0,810.79,50.63,68.60,-0.05498,-1.15
0,187.10,50.63,69.70,-0.04869,-2.37
0,-656.17,50.63,69.95,-0.04869,-0.12
0,-654.11,40.31,66.02,-0.04555,2.80
0,506.96,40.31,59.11,-0.04084,1.00
0,810.79,40.31,55.67,-0.03613,-0.78
0,111.55,40.31,56.66,-0.03299,-1.20
0,-577.47,40.31,56.77,-0.03299,0.64
0,-593.88,35.15,54.48,-0.02985,1.26
0,-41.24,35.15,50.29,-0.02827,0.23
0,624.70,35.15,46.33,-0.02513,-0.39
0,500.93,35.15,45.60,-0.02199,-0.62
0,-35.77,35.15,46.00,-0.02199,0.35
0,-440.27,35.15,45.97,-0.02042,0.74
0,437.87,92.58,45.27,-0.02042,0.23
0,810.79,92.58,46.21,-0.02042,0.17
0,810.79,92.58,51.06,-0.02356,0.25
0,810.79,92.58,58.29,-0.02670,0.47
0,463.92,92.58,66.71,-0.02985,0.76
0,-576.34,92.58,72.91,-0.03456,0.76
0,-810.79,61.29,72.77,-0.03927,0.61
0,434.22,61.29,67.01,-0.04241,0.25
0,810.79,61.29,63.56,-0.04241,-0.13
0,810.79,61.29,65.31,-0.04241,-1.35
0,-268.34,61.29,68.27,-0.04398,-0.26
0,-597.33,45.64,68.07,-0.04398,0.04
0,-404.30,45.64,64.51,-0.04241,-0.23
0,275.23,45.64,59.99,-0.04084,-0.33
0,785.33,45.64,56.79,-0.03613,-0.41
0,235.28,45.64,57.27,-0.03456,-0.60
0,-154.80,45.64,57.04,-0.03456,0.10
0,418.87,97.83,56.36,-0.03456,0.59
0,810.79,97.83,57.84,-0.03456,0.16
0,810.79,97.83,62.84,-0.03613,0.24
0,810.79,97.83,69.78,-0.03927,0.55
0,-140.77,97.83,76.34,-0.04241,0.70
0,-325.43,97.83,79.34,-0.04712,0.61
0,810.79,123.92,79.34,-0.05184,0.17
0,810.79,123.92,81.12,-0.05498,0.17
0,810.79,123.92,84.67,-0.05969,-0.06
0,810.79,123.92,90.29,-0.06440,0.09
0,810.79,123.92,96.71,-0.06912,0.33
0,553.24,123.92,104.30,-0.07697,0.45
0,26.62,136.97,109.71,-0.08482,0.49
0,323.66,136.97,111.91,-0.09268,0.52
0,810.79,136.97,112.40,-0.10053,-0.06
0,810.79,136.97,114.94,-0.10681,-0.22
0,767.88,136.97,119.61,-0.11310,-0.17
0,187.97,143.49,123.65,-0.11938,-0.12
0,475.30,143.49,125.00,-0.12723,0.03
0,810.79,143.49,125.83,-0.13195,-0.25
0,628.49,143.49,129.22,-0.13666,-0.36
0,197.20,143.49,132.22,-0.14294,-0.16
0,465.29,143.49,132.61,-0.14608,-0.22
0,810.79,146.75,132.85,-0.14765,-0.67
0,644.93,146.75,135.55,-0.14923,-0.62
0,196.96,146.75,138.24,-0.15237,0.02
0,338.52,146.75,138.74,-0.15394,0.02
0,637.46,146.75,138.74,-0.15551,0.12
0,651.12,146.75,139.76,-0.15708,-0.30
0,-810.79,88.37,140.49,-0.15708,-0.37
0,-810.79,88.37,135.40,-0.15551,-0.12
0,-497.07,88.37,125.37,-0.14765,-0.23
0,810.79,88.37,115.05,-0.13666,-1.00
0,810.79,88.37,111.46,-0.12566,-2.65
0,44.34,59.18,113.15,-0.11938,-1.96
0,-810.79,59.18,112.02,-0.11781,1.88
0,-810.79,59.18,104.66,-0.11310,2.47
0,73.94,59.18,93.25,-0.10210,-0.51
0,810.79,59.18,84.03,-0.08482,-2.94
0,810.79,59.18,82.24,-0.06912,-3.57
0,-280.17,44.59,84.13,-0.06440,0.67
0,-810.79,44.59,81.87,-0.06440,4.38
0,-218.37,44.59,73.71,-0.06126,2.40
0,810.79,44.59,66.01,-0.05498,-1.10
0,810.79,44.59,64.41,-0.04712,-2.22
0,-348.04,44.59,66.15,-0.04241,0.24
0,-810.79,37.29,64.36,-0.04241,2.18
0,54.26,37.29,57.78,-0.03770,2.18
0,810.79,37.29,52.33,-0.03299,0.31
0,538.39,37.29,52.24,-0.02827,-0.87
0,-347.29,37.29,53.17,-0.02827,-0.63
0,-660.09,33.64,52.01,-0.02670,1.15
0,-201.65,33.64,48.19,-0.02513,0.77
0,487.96,33.64,44.19,-0.02199,0.07
0,629.83,33.64,42.69,-0.02042,-0.36
0,48.06,33.64,43.44,-0.01885,-0.16
0,-308.12,33.64,43.35,-0.01885,0.36
0,277.87,91.83,43.14,-0.01885,0.50
0,810.79,91.83,44.77,-0.01885,0.08
0,810.79,91.83,50.05,-0.02199,0.24
0,810.79,91.83,57.54,-0.02513,0.44
0,11.31,91.83,65.65,-0.02827,0.83
0,-524.18,91.83,70.33,-0.03299,0.56
0,-620.17,60.91,70.31,-0.03770,0.24
0,47.67,60.91,66.90,-0.04084,-0.06
0,810.79,60.91,63.58,-0.04084,-0.94
0,536.21,60.91,64.58,-0.04084,-0.94
0,-7.84,60.91,65.82,-0.04241,-0.52
0,-51.39,60.91,65.30,-0.04241,-0.30
0,810.79,105.46,65.18,-0.04241,-0.09
0,810.79,105.46,68.37,-0.04398,-0.06
0,810.79,105.46,73.75,-0.04555,0.22
0,810.79,105.46,80.60,-0.04869,0.46
0,-74.54,105.46,87.00,-0.05341,0.45
0,-221.21,127.74,90.17,-0.05812,0.61
0,810.79,127.74,90.48,-0.06283,0.47
0,810.79,127.74,92.68,-0.06912,0.09
0,810.79,127.74,96.57,-0.07383,-0.01
0,810.79,127.74,102.32,-0.08011,0.25
0,406.19,127.74,108.67,-0.08639,0.19
0,-6.47,138.88,113.19,-0.09425,0.35
0,552.13,138.88,114.37,-0.09896,-0.02
0,810.79,138.88,115.47,-0.10681,-0.07
0,810.79,138.88,118.97,-0.11310,-0.12
0,387.34,138.88,123.52,-0.11938,0.04
0,126.09,138.88,126.05,-0.12566,0.04
0,729.97,144.45,126.11,-0.13195,0.09
0,810.79,144.45,127.85,-0.13666,-0.23
0,392.36,144.45,131.71,-0.14294,-0.27
0,173.74,144.45,133.83,-0.14765,-0.19
0,596.41,144.45,133.71,-0.14923,-0.29
0,771.23,147.23,134.66,-0.15080,-0.75
0,449.88,147.23,137.28,-0.15237,-0.62
0,303.97,147.23,138.84,-0.15394,-0.02
0,636.74,147.23,138.78,-0.15551,0.14
0,696.73,147.23,139.72,-0.15551,-0.17
0,421.78,147.23,141.49,-0.15708,-0.21
0,602.41,148.62,141.62,-0.15708,-0.07
0,703.97,148.62,142.23,-0.15865,-0.05
0,436.45,148.62,143.86,-0.16022,-0.03
0,511.96,148.62,144.15,-0.16022,0.05
0,619.87,148.62,144.38,-0.16022,-0.01
0,546.13,148.62,145.16,-0.16179,-0.09
0,-810.79,89.31,145.36,-0.16179,-0.00
0,-810.79,89.31,140.77,-0.16022,-0.00
0,-806.11,89.31,130.65,-0.15551,-0.20
0,810.79,89.31,119.33,-0.14294,-0.63
0,810.79,89.31,114.55,-0.13038,-2.07
0,509.11,119.66,115.45,-0.12409,-2.38
0,338.11,119.66,116.38,-0.12409,0.68
0,667.39,119.66,115.73,-0.12409,3.15
0,575.89,119.66,116.57,-0.12566,1.42
0,488.15,119.66,117.17,-0.12566,-0.29
0,582.26,119.66,117.18,-0.12566,0.16
0,799.81,134.84,117.48,-0.12723,-0.01
0,810.79,134.84,119.75,-0.12723,0.03
0,330.93,134.84,123.07,-0.13038,0.41
0,517.52,134.84,123.79,-0.13352,0.44
0,773.32,134.84,124.42,-0.13509,0.18
0,501.43,134.84,126.62,-0.13823,0.03
0,685.31,142.43,127.55,-0.13980,0.02
0,706.16,142.43,129.47,-0.14137,-0.16
0,399.76,142.43,131.95,-0.14451,0.09
0,639.60,142.43,132.39,-0.14608,0.09
0,778.19,142.43,133.23,-0.14765,-0.02
0,396.39,142.43,135.58,-0.14923,-0.22
0,-810.79,86.21,135.17,-0.15080,-0.05
0,-810.79,86.21,129.26,-0.14923,-0.05
0,6.22,86.21,119.29,-0.14137,-0.57
0,810.79,86.21,110.93,-0.12723,-1.52
0,810.79,86.21,109.14,-0.11624,-2.72
0,-412.82,58.10,110.76,-0.11467,-0.87
0,-810.79,58.10,108.20,-0.11310,2.72
0,-810.79,58.10,99.42,-0.10524,1.50
0,810.79,58.10,87.95,-0.09425,-1.08
0,810.79,58.10,82.13,-0.07854,-3.31
0,716.65,58.10,82.53,-0.06597,-2.42
0,-810.79,44.05,83.43,-0.06440,2.82
0,-810.79,44.05,78.61,-0.06283,3.70
0,447.35,44.05,69.57,-0.05812,0.45
0,810.79,44.05,64.29,-0.05027,-1.90
0,442.21,44.05,64.64,-0.04241,-1.54
0,-580.18,44.05,65.27,-0.04241,1.55
0,-642.60,37.02,61.89,-0.04084,1.55
0,357.18,37.02,55.51,-0.03613,1.67
0,810.79,37.02,51.79,-0.03142,-0.09
0,189.38,37.02,52.33,-0.02827,-0.96
0,-388.75,37.02,52.25,-0.02670,-0.10
0,-596.08,33.51,50.85,-0.02670,1.16
0,-270.73,33.51,47.60,-0.02513,0.43
0,252.54,33.51,44.19,-0.02199,-0.03
0,664.64,33.51,41.68,-0.01885,-0.33
0,285.63,33.51,41.98,-0.01885,-0.30
0,-84.57,33.51,42.09,-0.01728,0.26
0,605.65,91.76,42.05,-0.01728,0.59
0,810.79,91.76,44.16,-0.01885,0.14
0,810.79,91.76,49.82,-0.02042,0.25
0,810.79,91.76,57.59,-0.02356,0.57
0,-18.11,91.76,65.92,-0.02827,0.80
0,-571.78,91.76,70.57,-0.03299,0.60
0,-568.28,60.88,70.02,-0.03770,0.19
0,116.87,60.88,66.61,-0.04084,-0.10
0,810.79,60.88,63.56,-0.04084,-0.10
0,494.76,60.88,64.72,-0.04084,-1.10
0,-6.84,60.88,65.74,-0.04241,-0.42
0,-6.16,105.44,65.08,-0.04241,-0.30
0,810.79,105.44,65.26,-0.04241,-0.14
0,810.79,105.44,68.77,-0.04398,-0.01
0,810.79,105.44,74.39,-0.04555,0.31
0,769.07,105.44,81.41,-0.04869,0.47
0,-160.46,105.44,87.19,-0.05341,0.48
0,-718.09,67.72,89.59,-0.05969,0.61
0,-480.76,67.72,85.71,-0.06283,0.35
0,810.79,67.72,79.15,-0.06440,-0.17
0,810.79,67.72,76.90,-0.06283,-1.36
0,221.49,67.72,79.22,-0.06440,-0.48
0,-624.08,67.72,80.35,-0.06440,-0.13
0,548.54,108.87,77.92,-0.06440,-0.10
0,810.79,108.87,77.48,-0.06283,-0.17
0,810.79,108.87,80.93,-0.06440,0.23
0,810.79,108.87,86.59,-0.06754,0.50
0,262.86,108.87,93.13,-0.07069,0.50
0,-376.40,108.87,97.02,-0.07540,0.50
0,576.48,129.44,97.51,-0.07854,0.53
0,810.79,129.44,98.00,-0.08168,0.08
0,810.79,129.44,100.85,-0.08482,-0.18
0,810.79,129.44,105.52,-0.08954,0.09
0,810.79,129.44,111.23,-0.09268,0.28
0,-116.20,139.73,116.82,-0.09896,0.25
0,25.14,139.73,118.98,-0.10524,0.34
0,810.79,139.73,118.81,-0.11153,0.37
0,810.79,139.73,120.58,-0.11781,-0.04
0,761.79,139.73,124.37,-0.12409,-0.07
0,55.30,139.73,128.39,-0.12881,0.20
0,-810.79,84.86,129.40,-0.13509,-0.14
0,-810.79,84.86,124.60,-0.13980,-0.24
0,86.87,84.86,115.03,-0.13352,-1.52
0,810.79,84.86,107.65,-0.12252,-2.42
0,810.79,84.86,106.63,-0.11310,-2.48
0,-419.59,84.86,108.19,-0.11153,0.65
0,-810.79,57.43,105.61,-0.10996,0.65
0,-728.40,57.43,96.89,-0.10210,2.25
0,810.79,57.43,86.94,-0.09111,-0.37
0,810.79,57.43,82.23,-0.07697,-2.66
0,205.52,57.43,83.10,-0.06754,-3.08
0,-537.92,103.72,82.72,-0.06597,1.32
0,810.79,103.72,80.56,-0.06597,3.82
0,810.79,103.72,81.61,-0.06754,1.89
0,810.79,103.72,85.84,-0.07069,-0.17
0,158.92,103.72,91.22,-0.07226,0.67
0,-193.81,103.72,93.69,-0.07540,0.63
0,656.25,126.87,93.23,-0.07854,0.27
0,810.79,126.87,94.33,-0.08011,-0.17
0,810.79,126.87,97.46,-0.08325,-0.02
0,810.79,126.87,102.64,-0.08639,0.32
0,473.79,126.87,108.72,-0.09111,0.41
0,-206.70,126.87,113.24,-0.09582,0.35
0,255.59,138.44,114.22,-0.10210,0.25
0,810.79,138.44,114.31,-0.10838,0.17
0,810.79,138.44,116.94,-0.11310,0.17
0,720.69,138.44,121.56,-0.11938,-0.04
0,67.85,138.44,125.61,-0.12566,0.04
0,71.75,138.44,127.00,-0.13195,0.33
0,-810.79,84.22,125.49,-0.13666,-0.11
0,-583.26,84.22,118.47,-0.13509,-0.36
0,810.79,84.22,109.83,-0.12409,-1.85
0,810.79,84.22,106.33,-0.11624,-2.34
0,-77.26,84.22,107.34,-0.11153,-2.05
0,-810.79,57.10,106.36,-0.10996,0.96
0,-810.79,57.10,99.95,-0.10367,1.76
0,308.89,57.10,90.34,-0.09582,-0.38
0,810.79,57.10,83.63,-0.08168,-2.69
0,437.58,57.10,83.30,-0.07069,-2.70
0,-647.34,57.10,83.44,-0.06754,1.86
0,310.00,103.56,80.03,-0.06597,3.37
0,810.79,103.56,77.75,-0.06440,0.85
0,810.79,103.56,80.37,-0.06597,-0.01
0,810.79,103.56,85.74,-0.06754,1.00
0,193.63,103.56,92.07,-0.07226,1.00
0,-503.76,103.56,95.56,-0.07540,0.89
0,-810.79,66.78,93.53,-0.07854,0.64
0,271.27,66.78,86.32,-0.07854,-0.01
0,810.79,66.78,81.48,-0.07383,-1.25
0,507.53,66.78,81.95,-0.07069,-1.59
0,-399.42,66.78,82.89,-0.07069,-0.49
0,-343.24,108.39,81.32,-0.06912,0.89
0,810.79,108.39,79.21,-0.06754,0.15
0,810.79,108.39,81.66,-0.06754,-0.08
0,810.79,108.39,87.03,-0.07226,0.52
0,97.55,108.39,93.26,-0.07540,0.72
0,-280.63,108.39,96.12,-0.07854,0.61
0,-468.28,69.19,95.91,-0.08168,0.20
0,-552.53,69.19,92.62,-0.08482,-0.13
0,251.20,69.19,87.11,-0.08168,-1.01
0,810.79,69.19,83.10,-0.07697,-1.16
0,170.71,69.19,83.85,-0.07383,-0.76
0,-374.57,69.19,83.70,-0.07383,0.56
0,540.91,109.60,82.70,-0.07226,0.56
0,810.79,109.60,83.30,-0.07226,0.44
0,810.79,109.60,87.42,-0.07383,0.17
0,273.35,109.60,93.03,-0.07697,0.35
0,-64.49,109.60,95.95,-0.08011,0.55
0,457.49,69.80,95.82,-0.08168,0.44
0,-127.82,69.80,94.44,-0.08482,0.04
0,-325.76,69.80,91.98,-0.08482,-0.17
0,-164.35,69.80,88.69,-0.08325,-0.66
0,237.96,69.80,85.05,-0.08011,-0.56
0,634.54,69.80,81.99,-0.07383,-0.88
0,788.98,109.91,81.62,-0.07069,-0.87
0,810.79,109.91,84.28,-0.07226,0.33
0,520.57,109.91,89.41,-0.07540,1.58
0,172.97,109.91,92.85,-0.07854,1.17
0,649.30,109.91,93.30,-0.08325,0.39
0,810.79,109.91,94.34,-0.08482,-0.21
0,-204.03,69.95,97.20,-0.08796,-0.27
0,-810.79,69.95,96.01,-0.08954,-0.26
0,76.29,69.95,89.27,-0.08482,-0.26
0,810.79,69.95,83.42,-0.07854,-0.93
0,693.12,69.95,83.73,-0.07383,-1.58
0,-404.36,69.95,85.45,-0.07383,-0.86
0,542.48,109.98,84.84,-0.07383,1.50
0,810.79,109.98,85.93,-0.07383,0.83
0,810.79,109.98,89.98,-0.07697,0.21
0,224.84,109.98,94.65,-0.07854,0.42
0,235.91,109.98,96.31,-0.08011,0.56
0,555.54,69.99,96.00,-0.08325,0.22
0,-343.51,69.99,95.63,-0.08482,0.03
0,-642.30,69.99,93.21,-0.08639,-0.10
0,35.13,69.99,88.09,-0.08325,-0.89
0,810.79,69.99,83.48,-0.07697,-0.97
0,365.98,69.99,83.52,-0.07383,-1.12
0,-614.55,49.99,83.68,-0.07383,0.39
0,-810.79,49.99,80.21,-0.07069,0.77
0,284.44,49.99,72.44,-0.06283,-0.76
0,810.79,49.99,67.60,-0.05341,-2.19
0,223.87,49.99,68.25,-0.04712,-2.19
0,-505.96,49.99,68.39,-0.04555,-0.98
0,704.43,100.00,66.78,-0.04555,2.27
0,810.79,100.00,67.41,-0.04555,1.51
0,810.79,100.00,71.38,-0.04712,0.22
0,810.79,100.00,77.41,-0.04869,0.58
0,103.99,100.00,83.56,-0.05341,0.77
0,-309.23,125.01,86.84,-0.05812,0.68
0,810.79,125.01,87.04,-0.06283,0.41
0,810.79,125.01,88.60,-0.06597,0.05
0,810.79,125.01,92.43,-0.07226,-0.10
0,810.79,125.01,97.51,-0.07540,0.21
0,810.79,125.01,104.15,-0.08168,0.39
0,88.67,137.51,110.15,-0.08954,0.39
0,141.06,137.51,113.14,-0.09582,0.37
0,810.79,137.51,113.58,-0.10210,0.00
0,810.79,137.51,115.37,-0.10996,-0.05
0,810.79,137.51,119.46,-0.11624,-0.19
0,236.44,137.51,123.86,-0.12252,0.16
0,245.14,143.76,125.83,-0.12881,0.16
0,810.79,143.76,125.86,-0.13509,-0.03
0,810.79,143.76,127.99,-0.13980,-0.32
0,312.18,143.76,132.04,-0.14451,-0.25
0,80.40,143.76,134.08,-0.14765,-0.27
0,495.38,143.76,133.86,-0.14923,-0.37
0,-810.79,86.88,133.18,-0.14923,-0.81
0,-810.79,86.88,128.16,-0.14765,-0.50
0,46.58,86.88,118.78,-0.13980,-0.55
0,810.79,86.88,111.21,-0.12723,-1.80
0,810.79,86.88,110.04,-0.11781,-2.53
0,-660.79,58.43,111.22,-0.11624,-0.18
0,-810.79,58.43,107.48,-0.11310,2.72
0,-731.99,58.43,98.08,-0.10367,0.44
0,810.79,58.43,87.31,-0.09268,-1.86
0,810.79,58.43,82.97,-0.07697,-3.49
0,344.26,58.43,83.80,-0.06754,-0.72
0,-810.79,44.21,83.57,-0.06597,3.96
0,-744.63,44.21,77.71,-0.06283,2.75
0,698.31,44.21,68.98,-0.05655,-0.52
0,810.79,44.21,65.04,-0.05027,-0.52
0,89.00,44.21,66.01,-0.04398,-2.14
0,-742.34,44.21,65.84,-0.04241,-0.36
0,-432.00,37.10,61.19,-0.04084,2.15
0,517.75,37.10,55.17,-0.03613,0.70
0,746.89,37.10,52.54,-0.03142,-0.39
0,-36.44,37.10,53.19,-0.02827,-0.94
0,-605.26,37.10,52.99,-0.02827,0.34
0,-451.77,33.55,50.30,-0.02670,1.16
0,100.09,33.55,46.45,-0.02356,0.26
0,677.41,33.55,43.10,-0.02199,-0.27
0,394.67,33.55,42.99,-0.01885,-0.39
0,-0.23,33.55,43.06,-0.01885,0.21
0,-253.97,33.55,42.69,-0.01885,0.57
0,-404.67,31.77,41.94,-0.01728,0.21
0,-581.02,31.77,41.19,-0.01728,0.09
0,-249.68,31.77,38.93,-0.01571,0.02
0,174.82,31.77,36.70,-0.01571,-0.22
0,564.02,31.77,34.89,-0.01257,-0.37
0,508.33,31.77,34.77,-0.01257,-0.37
0,810.79,90.89,35.90,-0.01100,-0.06
0,810.79,90.89,40.75,-0.01257,0.44
0,810.79,90.89,48.41,-0.01728,0.35
0,720.63,90.89,57.34,-0.02042,0.71
0,-547.11,90.89,65.30,-0.02513,0.81
0,-268.66,90.89,67.13,-0.02985,0.63
0,810.79,120.45,66.90,-0.03456,0.29
0,810.79,120.45,69.28,-0.03927,-0.09
0,810.79,120.45,74.13,-0.04398,-0.20
0,810.79,120.45,80.58,-0.04869,0.14
0,810.79,120.45,87.71,-0.05498,0.21
0,810.79,135.23,95.65,-0.06283,0.43
0,582.45,135.23,104.30,-0.07069,0.73
0,-274.62,135.23,110.63,-0.08011,0.67
0,-266.28,135.23,113.40,-0.09111,0.39
0,587.87,135.23,113.24,-0.09896,-0.20
0,810.79,135.23,114.30,-0.10838,-0.28
0,810.79,142.62,117.83,-0.11467,-0.41
0,505.66,142.62,122.57,-0.12252,-0.41
0,216.52,142.62,125.88,-0.12881,-0.28
0,668.16,142.62,126.38,-0.13509,-0.27
0,810.79,142.62,127.90,-0.13980,-0.40
0,361.43,142.62,131.35,-0.14451,-0.39
0,404.74,146.32,132.84,-0.14765,-0.50
0,810.79,146.32,133.11,-0.14765,-0.54
0,537.77,146.32,135.55,-0.14923,-0.63
0,295.00,146.32,137.85,-0.15237,-0.05
0,540.14,146.32,138.02,-0.15394,0.19
0,383.26,88.16,138.56,-0.15394,-0.13
0,-810.79,88.16,137.96,-0.15551,-0.34
0,-810.79,88.16,131.56,-0.15237,-0.29
0,8.02,88.16,121.23,-0.14294,-0.70
0,810.79,88.16,112.44,-0.13038,-2.39
0,810.79,88.16,110.72,-0.11938,-2.56
0,444.04,119.08,112.54,-0.11624,0.64
0,593.54,119.08,112.77,-0.11624,3.18
0,670.41,119.08,113.38,-0.11781,1.84
0,492.66,119.08,114.62,-0.12252,0.08
0,599.11,119.08,114.79,-0.12252,0.08
0,687.61,119.08,115.03,-0.12252,-0.18
0,-526.32,74.54,115.27,-0.12252,-0.01
0,-810.79,74.54,111.48,-0.12095,-0.14
0,43.36,74.54,103.28,-0.11310,-0.21
0,810.79,74.54,96.47,-0.10210,-1.47
0,608.44,74.54,95.90,-0.09268,-2.68
0,-379.81,112.28,96.55,-0.08954,-0.70
0,595.57,112.28,95.29,-0.08954,2.67
0,810.79,112.28,96.10,-0.09111,1.79
0,551.02,112.28,99.85,-0.09268,0.41
0,162.67,112.28,102.44,-0.09582,0.41
0,578.73,112.28,102.21,-0.09582,0.41
0,810.79,131.14,102.89,-0.09896,0.04
0,810.79,131.14,106.13,-0.10210,0.08
0,697.48,131.14,110.85,-0.10367,0.44
0,79.32,131.14,115.16,-0.10996,0.60
0,286.22,131.14,116.29,-0.11467,0.21
0,810.79,131.14,116.38,-0.11781,0.00
0,-337.72,80.57,117.94,-0.12252,0.00
0,-810.79,80.57,115.79,-0.12409,-0.07
0,-147.23,80.57,107.99,-0.11938,-0.74
0,810.79,80.57,100.71,-0.10838,-1.37
0,810.79,80.57,99.37,-0.10053,-2.39
0,-279.24,80.57,100.81,-0.09739,-1.56
0,350.43,115.29,100.04,-0.09739,1.72
0,810.79,115.29,100.07,-0.09739,1.85
0,582.12,115.29,103.38,-0.10053,0.52
0,218.23,115.29,105.84,-0.10367,0.20
0,652.95,115.29,105.51,-0.10524,0.61
0,810.79,132.65,106.31,-0.10681,0.02
0,810.79,132.65,109.64,-0.10838,-0.30
0,389.08,132.65,114.35,-0.11153,0.31
0,291.17,132.65,116.74,-0.11467,0.44
0,810.79,132.65,116.77,-0.11781,0.16
0,810.79,132.65,118.68,-0.12252,0.16
0,-607.64,81.32,122.23,-0.12566,0.22
0,-810.79,81.32,119.92,-0.13038,-0.09
0,-658.09,81.32,111.93,-0.12566,-0.09
0,810.79,81.32,102.44,-0.11310,-1.39
0,810.79,81.32,98.59,-0.10210,-2.73
0,617.73,81.32,99.98,-0.09582,-2.76
0,462.96,115.67,101.41,-0.09582,0.76
0,810.79,115.67,101.80,-0.09739,3.14
0,681.91,115.67,104.39,-0.10210,1.88
0,263.23,115.67,106.99,-0.10681,0.61
0,537.67,115.67,107.06,-0.10838,-0.14
0,810.79,132.84,107.40,-0.10838,-0.46
0,810.79,132.84,110.27,-0.10996,-0.32
0,444.02,132.84,114.85,-0.11310,0.29
0,283.87,132.84,117.39,-0.11624,0.47
0,778.43,132.84,117.68,-0.11938,0.31
0,761.24,132.84,119.75,-0.12252,0.15
0,485.52,141.43,122.27,-0.12723,0.12
0,746.17,141.43,124.14,-0.13038,-0.09
