CONTROLLER_FLAG,SL_PWM,U,SL_position,ARM_position,Sprung_acceleration_x
100,810.79,89.98,86.89,-0.07069,1.63
100,-307.49,83.22,91.68,-0.07226,2.85
100,-810.79,78.85,91.37,-0.07069,2.77
100,511.73,84.39,85.96,-0.06754,2.77
100,810.79,89.26,82.87,-0.06440,0.62
100,810.79,95.28,84.34,-0.06126,-1.72
100,566.59,81.87,88.07,-0.05812,1.86
100,-491.74,77.98,90.42,-0.05812,2.64
100,-378.84,88.62,88.61,-0.05969,0.91
100,810.79,99.33,84.88,-0.06126,-1.65
100,810.79,95.57,84.33,-0.06283,-1.65
100,810.79,89.49,86.99,-0.06597,-1.22
100,7.12,86.05,90.94,-0.07226,0.03
100,-550.38,89.17,92.14,-0.07854,-0.96
100,-157.72,95.07,90.84,-0.08168,-5.48
100,810.79,109.90,89.31,-0.08325,-3.93
100,810.79,102.64,91.32,-0.08639,-3.33
100,-295.68,95.43,95.96,-0.09111,-2.10
100,-810.79,93.52,97.20,-0.09425,-0.75
100,72.59,92.86,93.54,-0.08954,-0.79
100,810.79,94.19,90.69,-0.08325,0.78
100,509.04,88.01,92.34,-0.08325,1.37
100,-426.50,86.42,94.26,-0.08325,1.37
100,-502.05,78.13,93.44,-0.08011,4.40
100,-264.16,69.86,90.66,-0.07854,6.60
100,96.74,94.71,87.22,-0.07383,-0.34
100,810.79,97.64,84.81,-0.06912,-0.54
100,810.79,84.44,86.96,-0.06754,0.99
100,-165.93,75.04,90.00,-0.06597,3.15
100,-590.74,80.65,89.49,-0.06440,2.86
100,252.70,91.66,86.09,-0.06440,0.80
100,810.79,95.51,83.71,-0.06440,-0.83
100,810.79,90.88,85.40,-0.06283,0.13
100,252.79,85.64,88.91,-0.06283,1.73
100,-348.93,82.15,90.02,-0.06440,0.84
100,-100.19,87.96,88.58,-0.06597,-0.66
100,776.22,94.64,86.22,-0.06912,-1.53
100,810.79,95.62,87.05,-0.06912,-2.98
100,352.64,97.62,90.19,-0.07226,-0.64
100,65.19,89.54,91.08,-0.07854,-2.55
100,459.74,96.19,90.28,-0.08011,-4.06
100,810.79,104.19,90.87,-0.08482,-4.06
100,282.06,106.32,94.54,-0.09111,-5.15
100,-305.09,98.92,97.52,-0.09582,-3.65
100,-588.24,94.96,98.40,-0.09739,-2.01
100,-273.71,93.78,96.90,-0.09425,-1.07
100,124.56,91.40,95.19,-0.09111,-0.07
100,496.15,90.47,93.49,-0.08482,0.16
100,483.12,78.67,92.91,-0.08168,3.65
100,-42.32,71.36,92.53,-0.07854,5.68
100,-344.07,77.84,91.11,-0.07697,4.71
100,171.95,98.02,88.76,-0.07383,-0.51
100,810.79,96.26,87.15,-0.06912,-0.71
100,644.81,89.73,89.33,-0.06912,2.46
100,-132.47,78.42,90.94,-0.06754,3.34
100,-296.81,78.02,89.80,-0.06597,2.07
100,208.96,86.32,87.32,-0.06754,-0.44
100,810.79,95.22,85.18,-0.06597,-1.32
100,810.79,95.06,86.51,-0.06440,1.18
100,152.73,82.96,89.52,-0.06440,2.04
100,-364.71,79.83,89.90,-0.06597,2.04
100,152.11,92.24,88.26,-0.06754,-0.28
100,810.79,94.26,86.49,-0.06912,-1.84
100,794.56,98.18,88.32,-0.07069,-3.12
100,279.80,95.17,91.08,-0.07540,-2.23
100,317.52,92.71,91.31,-0.07854,-1.48
100,635.80,100.23,90.59,-0.08011,-3.37
100,587.69,93.83,91.97,-0.08639,-1.22
100,-48.96,99.03,94.36,-0.09111,-3.38
100,-273.74,98.66,95.57,-0.09268,-2.55
100,-146.82,98.22,95.48,-0.09268,-2.61
100,125.84,98.29,94.91,-0.08954,-0.97
100,371.97,92.77,94.25,-0.08796,0.50
100,411.10,87.39,93.58,-0.08325,4.42
100,222.13,75.34,92.60,-0.08011,4.78
100,18.35,75.32,91.09,-0.07854,5.65
100,64.01,75.74,89.01,-0.07540,-0.29
100,807.89,95.79,86.74,-0.07226,0.10
100,810.79,94.04,87.51,-0.06912,1.70
100,56.53,81.86,89.84,-0.06754,1.70
100,-307.71,76.77,89.47,-0.06597,3.10
100,56.13,83.63,87.38,-0.06597,2.34
100,810.79,85.85,84.78,-0.06597,-0.65
100,810.79,94.61,85.73,-0.06440,-1.44
100,355.48,81.34,88.49,-0.06440,1.80
100,-31.73,80.89,88.71,-0.06440,1.92
100,196.27,94.06,87.19,-0.06440,-0.72
100,810.79,96.31,85.82,-0.06754,-1.16
100,666.59,93.48,88.08,-0.06912,-1.63
100,111.31,87.65,90.17,-0.07383,-0.22
100,251.47,98.81,89.80,-0.07697,-3.07
100,810.79,101.27,89.29,-0.07854,-5.71
100,559.00,107.07,92.10,-0.08482,-0.20
100,-227.46,87.59,95.22,-0.09111,-2.98
100,-652.96,95.78,95.99,-0.09425,-3.01
100,76.91,102.56,94.08,-0.09268,-3.95
100,810.79,104.34,92.90,-0.08954,-3.44
100,390.03,99.66,95.53,-0.08796,3.34
100,-772.04,75.45,97.40,-0.08796,3.34
100,-784.44,71.30,94.10,-0.08482,5.01
100,796.90,80.84,87.09,-0.07383,4.49
100,810.79,82.10,84.17,-0.06912,4.29
100,810.79,77.82,86.11,-0.06912,0.78
100,-113.58,89.72,89.28,-0.07069,0.69
100,-196.92,81.64,89.38,-0.06912,2.62
100,40.23,81.10,87.59,-0.06754,2.50
100,660.20,90.67,84.95,-0.06597,0.23
100,810.79,95.89,85.01,-0.06440,-1.32
100,382.79,81.99,87.89,-0.06440,1.87
100,-184.27,80.66,88.76,-0.06440,1.78
100,-19.35,85.23,87.34,-0.06440,0.20
100,710.98,91.63,85.03,-0.06440,-1.38
100,810.79,95.24,85.57,-0.06597,-1.06
100,350.83,91.58,88.41,-0.06754,0.63
100,109.63,84.96,89.00,-0.07226,-1.61
100,397.88,94.13,88.20,-0.07383,-5.13
100,810.79,108.57,88.24,-0.07540,-5.02
100,633.78,105.88,91.85,-0.08011,-5.02
100,-683.85,84.31,95.88,-0.09111,0.01
100,-653.05,94.47,94.91,-0.09425,-2.70
100,759.67,102.53,91.13,-0.09268,-4.32
100,810.79,105.83,91.42,-0.08954,-7.06
100,583.92,111.20,96.37,-0.08954,-2.64
100,-810.79,75.92,100.75,-0.09425,2.78
100,-810.79,64.37,98.53,-0.09111,7.86
100,-138.79,78.64,90.45,-0.08011,5.37
100,810.79,86.55,83.35,-0.07069,3.70
100,810.79,91.37,82.37,-0.06754,0.38
100,810.79,81.76,85.93,-0.06912,1.99
100,-310.12,75.70,91.18,-0.07069,3.35
100,-810.79,79.92,91.13,-0.06912,3.06
100,450.23,84.45,85.18,-0.06754,0.87
100,810.79,89.95,81.52,-0.06283,-0.98
100,810.79,92.89,82.50,-0.05812,1.38
100,810.79,82.46,85.94,-0.05498,2.92
100,-380.15,76.48,89.51,-0.05498,2.10
100,-478.71,83.40,88.55,-0.05655,2.10
100,636.02,93.18,85.02,-0.05812,0.22
100,810.79,93.79,83.89,-0.05969,-0.57
100,810.79,91.64,86.35,-0.06440,-1.22
100,58.23,90.73,89.88,-0.07069,-0.95
100,-201.73,91.27,90.73,-0.07697,-2.17
100,170.42,97.00,90.21,-0.08011,-2.55
100,668.62,100.98,89.67,-0.08325,-3.73
100,561.17,98.90,91.60,-0.08639,-3.38
100,-50.50,93.05,94.33,-0.08954,-1.75
100,-510.65,95.73,95.60,-0.09111,-2.15
100,-356.57,95.23,95.04,-0.09111,-1.26
100,-116.58,83.85,93.92,-0.08796,1.93
100,-79.75,83.23,92.52,-0.08325,2.17
100,130.73,85.28,90.76,-0.08011,3.02
100,498.27,82.53,88.76,-0.07540,4.30
100,510.43,76.84,87.76,-0.07383,3.31
100,154.54,80.08,87.76,-0.07226,0.04
100,161.78,92.87,87.64,-0.07069,0.12
100,498.73,92.18,87.13,-0.06754,0.12
100,550.66,80.02,86.69,-0.06597,2.52
100,331.44,78.56,86.43,-0.06597,2.69
100,451.11,87.04,85.78,-0.06597,1.24
100,714.07,88.15,85.27,-0.06597,-0.47
100,632.80,91.30,86.24,-0.06597,-0.35
100,573.87,90.12,86.85,-0.06597,1.12
100,539.64,84.42,86.73,-0.06597,0.88
100,522.38,90.31,86.64,-0.06754,0.01
100,662.99,97.94,86.70,-0.06912,-2.23
100,765.46,98.60,87.89,-0.06912,-2.79
100,397.24,89.75,90.17,-0.07383,-0.83
100,324.01,98.14,90.48,-0.07697,-3.29
100,656.88,100.48,90.46,-0.07854,-3.04
100,544.36,98.49,92.08,-0.08639,0.11
100,29.26,86.97,93.98,-0.09111,-3.47
100,-305.97,99.99,94.79,-0.09268,-4.41
100,8.46,107.48,94.81,-0.09268,-2.58
100,321.12,98.30,94.80,-0.08954,0.02
100,212.25,86.45,94.78,-0.08796,0.02
100,-94.20,84.67,94.66,-0.08482,1.14
100,-531.20,76.78,94.22,-0.08325,4.60
100,-523.54,73.51,91.59,-0.08011,5.79
100,439.71,86.68,87.37,-0.07540,2.49
100,810.79,87.17,85.47,-0.07226,-0.49
100,656.87,92.07,87.80,-0.07069,0.42
100,-99.59,87.82,90.14,-0.07069,1.85
100,-204.82,82.14,89.44,-0.06754,2.69
100,147.69,86.61,87.21,-0.06754,1.57
100,810.79,92.91,84.87,-0.06597,-0.26
100,779.95,88.54,86.37,-0.06440,0.34
100,168.60,81.52,88.35,-0.06440,1.80
100,144.34,85.40,87.58,-0.06440,1.12
100,618.48,87.84,85.83,-0.06440,-0.74
100,810.79,92.93,85.79,-0.06597,-1.60
100,465.71,94.71,87.90,-0.06912,-0.36
100,547.86,89.38,88.10,-0.07069,-2.43
100,706.33,95.99,88.17,-0.07383,-4.95
100,732.89,106.27,89.74,-0.07697,-4.95
100,188.08,92.22,92.61,-0.08325,-1.18
100,-370.88,89.79,94.12,-0.08954,-1.31
100,-193.74,105.88,94.14,-0.09268,-4.72
100,381.47,107.64,93.87,-0.09425,-4.60
100,693.34,103.06,94.27,-0.09111,-3.53
100,273.83,98.00,96.23,-0.08954,0.31
100,-184.77,86.33,96.68,-0.08796,3.54
100,-562.79,77.41,95.62,-0.08639,6.01
100,-472.58,72.59,92.39,-0.08011,5.34
100,352.19,83.13,87.82,-0.07697,3.90
100,810.79,94.03,85.29,-0.07226,-0.11
100,810.79,87.55,87.22,-0.07226,0.98
100,-170.69,79.92,90.27,-0.07226,2.23
100,-587.93,80.47,90.18,-0.06912,2.76
100,-95.22,83.47,87.37,-0.06754,0.89
100,810.79,89.52,83.98,-0.06597,-1.27
100,810.79,94.95,84.34,-0.06283,0.13
100,491.79,87.77,87.48,-0.06126,2.20
100,-177.71,79.29,89.02,-0.06126,2.20
100,-185.21,83.88,88.06,-0.06126,1.65
100,508.19,93.74,85.86,-0.06440,-0.33
100,810.79,93.79,85.37,-0.06597,-0.69
100,492.93,91.70,88.10,-0.06912,-1.22
100,12.05,86.39,89.50,-0.07383,0.25
100,88.92,87.79,88.95,-0.07697,-2.35
100,637.60,98.72,88.04,-0.07697,-5.62
100,810.79,109.80,89.38,-0.08325,-1.07
100,-164.15,91.02,93.88,-0.08796,-2.90
100,-810.79,93.52,95.61,-0.09268,-1.87
100,139.49,103.28,92.50,-0.08954,-3.55
100,810.79,98.05,90.74,-0.08482,-2.50
100,547.47,76.48,93.55,-0.08482,2.95
100,-810.79,80.29,96.36,-0.08482,2.19
100,-528.02,88.13,92.56,-0.08011,5.43
100,810.79,76.63,86.60,-0.07069,4.33
100,810.79,75.55,85.46,-0.06912,1.18
100,265.29,87.94,87.63,-0.07069,-0.11
100,151.44,93.68,88.19,-0.06912,-0.11
100,531.51,85.98,87.18,-0.06597,1.31
100,560.85,78.91,86.62,-0.06440,2.65
100,352.86,80.60,86.42,-0.06440,2.60
100,408.94,86.36,85.89,-0.06440,1.63
100,793.46,93.03,85.27,-0.06440,-0.37
100,586.20,91.18,86.84,-0.06440,-0.06
100,436.16,87.78,87.42,-0.06440,0.99
100,610.66,84.94,86.63,-0.06440,-0.11
100,644.17,89.83,86.87,-0.06597,-0.66
100,630.93,92.64,87.58,-0.06754,-0.98
100,577.15,92.55,88.33,-0.06912,-1.36
100,703.88,101.02,88.52,-0.07226,-3.66
100,607.28,100.08,90.49,-0.07540,-3.33
100,317.29,89.13,92.37,-0.08011,-0.64
100,167.76,97.88,92.56,-0.08639,-3.11
100,494.47,101.64,92.23,-0.08796,-5.20
100,722.37,106.70,92.96,-0.08954,-4.87
100,318.76,104.25,95.89,-0.09111,-1.25
100,-139.02,90.95,97.71,-0.08954,-1.25
100,-568.58,78.36,97.69,-0.08796,2.76
100,-514.27,77.29,94.85,-0.08482,4.28
100,341.20,83.88,90.26,-0.07697,3.48
100,810.79,82.86,87.52,-0.07383,3.68
100,324.82,84.15,89.38,-0.07383,2.23
100,-0.89,89.53,90.05,-0.07383,0.52
100,303.11,89.88,88.97,-0.06912,1.04
100,716.16,86.61,87.53,-0.06754,2.47
100,392.05,80.98,87.96,-0.06597,3.08
100,202.61,79.38,87.52,-0.06597,2.11
100,412.55,84.51,86.32,-0.06597,0.32
100,810.79,91.31,85.59,-0.06440,-1.34
100,615.59,84.70,87.61,-0.06440,1.06
100,126.10,83.98,88.66,-0.06440,0.93
100,303.81,92.05,87.54,-0.06597,-0.43
100,810.79,92.78,86.49,-0.06754,-1.88
100,509.43,94.91,88.48,-0.06912,-2.05
100,476.36,95.34,89.26,-0.07226,-2.72
100,684.87,97.45,89.45,-0.07383,-2.72
100,637.29,103.40,90.85,-0.07697,-4.48
100,322.16,90.02,92.81,-0.08639,-0.58
100,-18.83,96.81,93.84,-0.08954,-3.03
100,248.93,104.81,93.75,-0.09111,-4.08
100,727.28,105.40,93.66,-0.08954,-4.55
100,327.04,95.86,95.85,-0.08954,-2.54
100,-169.53,95.26,97.30,-0.09111,1.99
100,-525.73,83.42,97.19,-0.08639,3.44
100,-531.80,79.15,94.97,-0.08325,4.89
100,45.18,77.52,90.96,-0.07854,4.74
100,796.95,78.80,87.12,-0.07383,-0.22
100,810.79,94.89,87.35,-0.07226,-0.03
100,238.29,92.97,90.58,-0.07226,0.46
100,-259.47,80.07,91.53,-0.07069,2.53
100,-256.37,82.63,90.02,-0.06912,2.48
100,336.23,91.52,87.25,-0.06754,0.44
100,810.79,90.43,85.65,-0.06597,-1.19
100,678.09,92.35,87.65,-0.06440,1.98
100,184.22,81.86,89.34,-0.06283,1.98
100,83.11,83.81,88.78,-0.06283,1.40
100,477.14,90.63,87.10,-0.06440,0.34
100,810.79,94.26,86.68,-0.06597,-0.83
100,418.72,92.38,88.93,-0.06912,-1.02
100,353.31,89.33,89.28,-0.07226,-0.42
100,654.42,98.20,88.89,-0.07383,-2.78
100,651.72,100.38,90.32,-0.07540,-3.05
100,361.68,98.01,92.26,-0.08011,-0.04
100,152.19,87.33,92.71,-0.08639,-2.90
100,288.52,97.93,92.51,-0.08796,-3.98
100,738.38,105.28,92.46,-0.08954,-3.98
100,425.41,102.76,94.92,-0.08954,-2.83
100,-158.54,96.16,96.98,-0.08796,0.64
100,-602.63,85.41,97.01,-0.08796,1.52
100,-340.11,79.31,94.56,-0.08325,4.23
100,122.24,79.66,91.15,-0.07854,4.03
100,741.47,80.14,87.83,-0.07383,2.42
100,447.16,84.46,88.09,-0.07383,0.46
100,315.04,90.70,88.15,-0.07226,0.46
100,612.68,93.72,87.57,-0.06754,-0.74
100,559.00,83.28,88.24,-0.06597,1.72
100,382.99,77.74,87.89,-0.06597,2.96
100,490.01,84.16,86.52,-0.06440,1.94
100,748.87,91.71,85.91,-0.06440,0.30
100,501.16,89.60,87.33,-0.06597,0.36
100,509.11,84.36,87.16,-0.06440,1.18
100,611.32,84.81,86.56,-0.06440,0.58
100,603.21,88.39,86.63,-0.06597,-0.70
100,718.73,92.87,86.87,-0.06597,-1.35
100,591.01,94.13,88.18,-0.06754,-0.72
100,523.77,90.66,88.72,-0.07069,-1.28
100,623.86,92.37,88.84,-0.07226,-4.79
100,756.07,105.49,90.35,-0.07697,-0.96
100,50.10,92.57,93.01,-0.08482,-1.59
100,-414.62,104.76,94.19,-0.08954,-4.45
100,5.03,107.95,94.12,-0.09111,-4.83
100,552.82,104.14,94.02,-0.09111,-3.77
100,573.69,98.85,95.18,-0.08954,-3.77
100,157.42,85.98,96.68,-0.08954,0.34
100,-275.78,79.98,96.53,-0.08639,2.70
100,-593.32,70.54,95.16,-0.08325,6.67
100,-387.69,74.16,91.41,-0.07854,6.10
100,621.35,87.83,86.63,-0.07226,2.71
100,810.79,93.54,85.19,-0.06912,0.44
100,632.45,88.24,88.29,-0.07069,0.39
100,-474.03,78.47,91.06,-0.06912,2.60
100,-455.90,80.77,89.33,-0.06754,2.39
100,532.34,85.30,85.39,-0.06440,0.67
100,810.79,90.23,83.72,-0.06283,-1.81
100,810.79,96.02,86.02,-0.05969,1.58
100,-27.35,82.67,89.23,-0.05969,2.04
100,-458.79,79.65,89.34,-0.05969,1.27
100,-34.83,86.91,87.46,-0.06126,-1.07
100,810.79,96.67,85.19,-0.06283,-1.07
100,810.79,89.40,86.33,-0.06597,-0.82
100,229.06,89.73,89.40,-0.06912,-0.54
100,-19.72,91.36,90.13,-0.07540,-0.54
100,315.52,104.80,89.30,-0.07540,-4.29
100,810.79,98.77,89.54,-0.07697,-2.60
100,150.83,93.76,92.89,-0.08639,-2.41
100,-552.94,97.65,95.29,-0.08954,-2.98
100,-411.35,94.79,94.88,-0.09111,-1.29
100,-18.86,98.32,93.75,-0.08954,-2.52
100,438.30,94.55,92.66,-0.08325,-1.27
100,472.46,82.08,92.15,-0.08168,1.97
100,140.72,82.36,91.98,-0.07854,3.87
100,-167.25,79.65,91.59,-0.07540,6.19
100,-415.21,72.03,90.29,-0.07540,6.54
100,-450.76,71.13,88.02,-0.07226,-1.03
100,571.65,98.59,84.98,-0.06754,0.16
100,810.79,94.97,84.27,-0.06283,1.31
100,570.95,81.85,86.71,-0.05969,3.17
100,-328.57,74.95,88.11,-0.05812,2.58
100,-292.88,81.63,87.03,-0.05812,0.87
100,533.94,94.89,84.72,-0.05969,-0.82
100,810.79,91.20,84.09,-0.05812,-0.82
100,745.76,87.07,86.42,-0.05969,-0.22
100,38.95,82.06,88.55,-0.05969,1.67
100,17.05,87.65,87.82,-0.06126,0.67
100,622.81,94.97,86.00,-0.06440,-0.94
100,810.79,95.07,86.12,-0.06597,-1.49
100,413.90,94.69,89.13,-0.06912,-2.19
100,83.20,88.47,90.47,-0.07540,-0.27
100,250.64,101.04,90.27,-0.07854,-3.74
100,586.46,91.20,90.01,-0.08168,-0.13
100,357.65,87.42,90.68,-0.08482,-4.09
100,452.46,103.17,90.99,-0.08482,-5.75
100,810.79,110.98,91.77,-0.08482,-2.61
100,81.71,96.09,95.67,-0.08639,0.29
100,-810.79,83.42,97.60,-0.09111,1.64
100,-320.85,83.85,93.66,-0.08325,4.19
100,810.79,80.05,88.36,-0.07697,1.77
100,810.79,87.27,87.67,-0.07226,3.77
100,2.00,79.92,90.34,-0.07383,4.35
100,-713.14,77.73,90.64,-0.07383,4.35
100,-146.60,93.37,87.11,-0.06912,0.33
100,810.79,94.99,83.58,-0.06283,-0.47
100,810.79,84.03,84.54,-0.05969,0.99
100,317.23,72.76,87.83,-0.05655,3.87
100,-621.01,80.07,88.95,-0.05655,2.86
100,-74.64,92.60,86.33,-0.05812,0.59
100,810.79,94.38,83.43,-0.05812,-0.45
100,810.79,89.15,84.61,-0.05812,-0.42
100,243.86,82.37,87.85,-0.05969,1.12
100,-240.82,84.49,88.67,-0.06126,0.80
100,77.95,88.81,87.32,-0.06597,-1.37
100,810.79,95.98,85.49,-0.06754,-3.22
100,810.79,100.51,86.77,-0.06912,-2.45
100,266.66,95.29,90.58,-0.07383,-0.68
100,-387.49,88.16,92.50,-0.07854,-1.59
100,-296.49,93.68,92.10,-0.08482,-5.40
100,502.27,109.72,91.31,-0.08639,-6.83
100,810.79,113.59,92.81,-0.08954,-4.96
100,-109.29,102.13,97.44,-0.09268,-4.96
100,-810.79,88.77,99.31,-0.09268,-1.51
100,-86.50,79.44,95.17,-0.08796,4.13
100,810.79,81.65,90.39,-0.07854,2.84
100,790.09,86.84,89.79,-0.07540,1.95
100,123.17,75.18,91.31,-0.07540,5.17
100,-371.64,75.18,90.82,-0.07383,4.70
100,-219.04,96.04,88.98,-0.07226,-0.50
100,810.79,98.30,86.54,-0.06754,-0.99
100,810.79,81.45,87.27,-0.06440,1.95
100,-43.01,73.28,89.12,-0.06283,3.65
100,-384.21,78.58,88.45,-0.06283,2.23
100,69.38,87.00,86.22,-0.06283,-0.27
100,810.79,94.09,83.81,-0.06283,-0.30
100,810.79,90.72,85.01,-0.06126,0.60
100,194.16,84.58,87.88,-0.06126,1.69
100,-112.69,81.99,88.07,-0.06283,0.41
100,318.06,89.17,86.54,-0.06440,-1.61
100,810.79,97.30,85.46,-0.06597,-3.57
100,810.79,101.64,87.63,-0.06754,-3.57
100,91.93,92.25,91.23,-0.07383,-1.67
100,-315.01,91.07,92.38,-0.07854,-0.53
100,-131.90,106.25,91.58,-0.08168,-4.62
100,727.45,100.03,90.62,-0.08482,-2.70
100,524.29,104.68,92.69,-0.08796,-5.55
100,84.65,101.55,95.47,-0.08954,-4.12
100,-221.28,89.91,96.83,-0.09111,-0.76
100,-467.16,84.56,96.52,-0.08954,1.16
100,-457.46,88.87,95.12,-0.08639,0.93
100,-98.23,81.84,92.85,-0.08168,3.55
100,276.20,79.88,90.17,-0.07697,3.33
100,701.34,81.49,87.70,-0.07383,2.87
100,421.30,82.94,88.03,-0.07226,2.07
100,292.42,84.78,87.89,-0.07069,-0.38
100,520.09,92.72,87.34,-0.06597,2.03
100,573.64,84.02,87.19,-0.06440,3.01
100,351.36,77.88,86.94,-0.06440,2.23
100,473.24,82.63,85.83,-0.06440,-0.20
100,810.79,93.09,85.36,-0.06440,-0.20
100,526.80,92.38,87.33,-0.06440,-0.35
100,234.02,84.10,87.89,-0.06440,1.08
100,344.84,84.24,87.04,-0.06440,0.52
100,731.80,91.93,86.07,-0.06597,-0.31
100,550.34,96.55,87.47,-0.06754,-2.15
100,626.57,91.68,88.22,-0.06912,-0.91
100,698.93,94.86,88.49,-0.07069,-2.22
100,553.66,96.84,89.85,-0.07383,-2.37
100,533.43,97.08,90.72,-0.07697,-2.53
100,605.43,96.27,91.27,-0.08325,-2.38
100,435.43,97.32,92.49,-0.08796,-2.67
100,424.49,97.92,93.10,-0.08954,-4.20
100,591.50,103.20,93.47,-0.08796,-3.57
100,557.72,101.14,94.71,-0.08482,0.08
100,178.52,87.30,95.70,-0.08796,1.55
100,-119.59,82.83,95.24,-0.08482,6.32
100,-466.81,70.86,93.82,-0.08168,5.50
100,-455.86,75.00,91.23,-0.07854,2.92
100,304.13,86.95,87.95,-0.07383,2.92
100,810.79,94.30,86.06,-0.07069,0.33
100,492.57,88.19,88.63,-0.06912,0.73
100,-192.75,84.77,90.24,-0.06912,2.26
100,-177.18,81.77,89.07,-0.06754,2.93
100,281.88,85.96,86.58,-0.06597,1.81
100,810.79,96.80,84.72,-0.06440,-1.50
100,768.15,90.60,86.76,-0.06283,-0.22
100,132.98,78.14,88.91,-0.06283,2.50
100,-78.05,82.18,88.25,-0.06283,1.87
100,417.98,95.70,86.27,-0.06283,-0.87
100,810.79,98.90,85.42,-0.06440,-2.04
100,810.79,94.18,87.83,-0.06597,-1.61
100,93.07,91.33,90.93,-0.07226,-0.64
100,-43.69,90.34,91.23,-0.07697,-4.35
100,504.12,104.72,90.21,-0.07854,-5.29
100,810.79,108.64,91.12,-0.08325,-1.82
100,-91.97,92.49,95.47,-0.08954,-2.74
100,-810.79,94.13,97.48,-0.09425,-2.09
100,9.40,97.98,94.45,-0.09268,-2.09
100,810.79,105.73,91.99,-0.08796,-4.16
100,810.79,99.33,94.20,-0.08482,-2.86
100,-291.13,95.97,98.20,-0.08796,2.28
100,-810.79,80.71,98.23,-0.08796,5.94
100,-180.95,70.44,92.01,-0.07854,6.97
100,810.79,87.67,85.54,-0.07226,2.70
100,810.79,95.15,84.56,-0.06912,-0.04
100,810.79,84.33,87.92,-0.07069,1.51
100,-486.73,77.43,91.96,-0.06912,2.81
100,-650.42,80.41,90.32,-0.06754,3.17
100,792.67,92.93,84.82,-0.06440,0.35
100,810.79,95.76,82.67,-0.06126,-0.99
100,810.79,90.57,84.23,-0.05812,1.53
100,810.79,80.41,87.91,-0.05655,2.92
100,-509.87,77.74,91.12,-0.05655,1.41
100,-351.15,87.46,89.24,-0.05969,-1.30
100,810.79,98.71,85.42,-0.06126,-1.38
100,810.79,95.54,85.40,-0.06440,-1.28
100,810.79,90.23,88.52,-0.06754,-1.28
100,-175.67,88.99,91.89,-0.07383,-0.75
100,-424.68,91.03,92.35,-0.08011,-0.50
100,314.09,107.35,91.28,-0.08168,-4.79
100,810.79,107.35,91.26,-0.08482,-2.24
100,81.86,93.46,94.81,-0.08954,-5.49
100,-502.02,103.50,97.55,-0.09268,-3.48
100,-405.86,93.15,97.66,-0.09425,-1.22
100,-313.02,91.20,96.78,-0.09111,-0.67
100,-159.46,86.16,95.52,-0.08954,1.51
100,-63.86,84.80,94.01,-0.08482,2.03
100,136.62,82.46,92.14,-0.08011,3.01
100,408.76,77.83,89.92,-0.07540,4.34
100,585.16,77.67,87.91,-0.07226,3.43
100,420.34,81.39,87.39,-0.07069,-0.50
100,603.30,94.62,86.69,-0.06754,0.58
100,682.38,89.98,87.28,-0.06440,3.04
100,250.53,77.29,88.13,-0.06283,3.11
100,100.02,77.93,87.26,-0.06126,1.57
100,515.25,87.22,85.47,-0.06126,1.57
100,810.79,94.61,85.03,-0.06126,-0.52
100,422.25,88.80,87.42,-0.06126,0.24
100,136.49,83.63,87.93,-0.06283,0.99
100,296.16,85.61,87.01,-0.06283,-0.12
100,791.97,91.39,85.90,-0.06440,-1.07
100,568.00,94.13,87.70,-0.06754,-2.03
100,513.74,95.34,88.67,-0.07069,-0.35
100,563.09,96.91,88.61,-0.07226,-2.71
100,678.26,102.96,89.40,-0.07540,-3.89
100,468.27,91.16,91.63,-0.08168,-0.90
100,-31.09,93.96,93.17,-0.08639,-2.23
100,-69.52,106.79,93.65,-0.08954,-4.86
100,493.36,109.45,93.53,-0.08954,-5.54
100,741.39,105.65,94.72,-0.08796,-2.37
100,76.22,93.54,97.65,-0.08954,3.08
100,-700.18,76.63,98.67,-0.08954,5.31
100,-529.34,73.13,94.86,-0.08482,4.45
100,677.74,81.24,88.79,-0.07540,3.60
100,810.79,84.31,86.37,-0.07069,3.60
100,653.80,89.38,88.82,-0.07226,0.87
100,-345.89,82.96,91.49,-0.07383,2.28
100,-466.16,85.07,90.81,-0.07069,1.40
100,81.73,82.83,88.06,-0.06912,2.78
100,810.79,82.15,85.03,-0.06440,0.40
100,771.44,89.89,85.86,-0.06283,0.25
100,361.76,89.93,87.56,-0.06126,2.10
100,343.61,81.62,86.90,-0.06126,2.54
100,580.36,91.13,85.29,-0.06126,-0.02
100,732.57,95.55,85.74,-0.06283,-1.14
100,491.81,87.02,87.58,-0.06283,0.46
100,481.31,90.16,87.51,-0.06597,-0.89
100,720.50,98.61,87.34,-0.06912,-2.61
100,598.96,98.23,89.21,-0.07226,-2.46
100,411.57,95.47,90.73,-0.07540,-3.63
100,619.69,99.80,90.80,-0.07697,-1.30
100,543.87,93.09,91.93,-0.08482,-3.58
100,193.27,99.66,93.53,-0.08954,-4.75
100,321.22,106.17,94.21,-0.09111,-4.75
100,651.32,103.10,94.37,-0.08954,-4.16
100,350.62,94.94,95.91,-0.08796,-2.38
100,-339.95,75.29,96.47,-0.08796,3.58
100,-663.19,77.04,94.86,-0.08482,3.81
100,136.27,83.31,90.55,-0.07697,3.66
100,810.79,83.46,87.12,-0.07226,3.65
100,491.52,80.01,88.14,-0.07226,3.17
100,-144.31,80.04,89.06,-0.07226,0.15
100,147.71,91.53,88.21,-0.06754,0.79
100,747.42,82.05,86.53,-0.06440,2.11
100,473.13,79.30,86.92,-0.06440,2.68
100,365.40,84.84,86.34,-0.06440,1.75
100,669.65,93.58,85.34,-0.06440,-0.45
100,742.99,90.98,86.21,-0.06440,-0.16
100,399.61,88.09,87.71,-0.06440,0.81
100,530.20,85.66,87.18,-0.06440,0.15
100,668.47,88.94,86.76,-0.06597,-0.96
100,652.70,93.48,87.33,-0.06754,-1.64
100,602.06,95.10,88.33,-0.06912,-1.64
100,638.50,95.05,89.01,-0.07069,-1.98
100,602.28,97.69,90.05,-0.07383,-2.86
100,602.76,100.32,91.18,-0.07854,-3.54
100,335.23,89.00,92.31,-0.08482,-0.30
100,284.83,95.51,92.53,-0.08639,-2.43
100,572.92,99.26,92.30,-0.08796,-5.09
100,723.49,106.99,93.56,-0.08796,-4.71
100,195.36,104.47,96.65,-0.08954,-1.60
100,-400.50,91.88,98.09,-0.09111,4.05
100,-788.43,73.78,96.28,-0.08639,3.79
100,257.65,86.61,90.59,-0.07854,3.05
100,810.79,88.49,86.89,-0.07226,1.83
100,810.79,85.16,88.09,-0.07226,1.58
100,-91.58,81.91,91.48,-0.07383,2.20
100,-641.46,83.77,91.89,-0.07383,0.78
100,41.57,90.38,88.78,-0.07069,1.39
100,810.79,87.46,85.80,-0.06597,-0.60
100,810.79,90.91,86.84,-0.06440,2.51
100,138.07,80.70,89.15,-0.06283,2.51
100,-133.73,82.64,89.05,-0.06283,1.81
100,159.22,87.02,87.49,-0.06440,1.51
100,810.79,96.37,85.59,-0.06440,-1.30
100,810.79,92.60,86.53,-0.06283,-0.72
100,170.17,83.16,89.31,-0.06597,1.04
100,-168.45,84.16,89.57,-0.06912,0.32
100,207.91,90.42,88.18,-0.07226,-2.34
100,810.79,99.78,87.08,-0.07226,-6.95
100,810.79,113.30,89.70,-0.07540,-2.89
100,-40.06,96.52,94.52,-0.08325,0.22
100,-810.79,82.03,96.27,-0.09111,-1.76
100,-54.67,112.30,92.36,-0.09268,-5.22
100,810.79,113.17,89.56,-0.09268,-6.52
100,810.79,98.99,92.17,-0.08639,-4.41
100,-21.56,67.80,98.42,-0.08954,4.46
100,-810.79,73.01,100.63,-0.09268,4.93
100,-810.79,82.94,95.57,-0.08639,4.56
100,810.79,83.46,86.25,-0.07226,4.14
100,810.79,78.89,81.38,-0.06597,4.14
100,810.79,91.39,82.00,-0.06440,-0.58
100,810.79,82.82,86.30,-0.06597,2.17
100,-531.41,78.24,91.31,-0.06597,2.67
100,-702.64,81.94,89.97,-0.06440,2.66
100,810.79,90.90,84.40,-0.06283,0.90
100,810.79,97.40,82.51,-0.06126,-1.51
100,810.79,93.09,84.48,-0.05812,0.33
100,764.82,84.04,88.49,-0.05812,2.41
100,-603.62,78.53,91.62,-0.05812,2.09
100,-321.96,83.80,89.33,-0.05969,0.36
100,810.79,92.80,85.39,-0.06283,-1.10
100,810.79,95.91,85.36,-0.06440,-1.70
100,810.79,91.19,88.59,-0.06754,-1.39
100,-135.13,90.53,91.95,-0.07383,-0.79
100,-317.04,101.39,92.35,-0.08011,-3.36
100,325.47,102.44,91.39,-0.08168,-3.11
100,810.79,98.23,91.22,-0.08482,-4.87
100,274.63,103.08,94.04,-0.08796,-3.14
100,-87.60,99.19,96.07,-0.09111,-3.14
100,-239.03,94.37,96.69,-0.09111,-1.85
100,-186.88,92.52,96.12,-0.08796,-0.92
100,-217.24,82.62,95.27,-0.08796,2.44
100,-264.59,84.85,93.95,-0.08482,1.85
100,-66.11,83.73,92.09,-0.08011,2.96
100,223.38,78.53,89.75,-0.07540,4.23
100,555.21,77.87,87.27,-0.07226,2.26
100,644.01,85.23,86.58,-0.06912,2.26
100,427.13,85.02,87.03,-0.06754,2.26
100,531.87,82.77,86.21,-0.06440,2.26
100,534.10,82.48,85.78,-0.06126,2.26
100,525.75,82.92,85.43,-0.06126,2.26
100,511.67,83.01,85.21,-0.06283,2.26
100,422.55,82.65,85.20,-0.06283,2.26
100,326.34,82.69,85.20,-0.06283,2.26
100,245.48,82.75,85.14,-0.06126,2.26
100,194.15,82.73,85.01,-0.06283,2.26
100,229.56,82.68,84.58,-0.06283,2.26
100,480.11,82.58,83.51,-0.06283,2.26
100,609.93,82.31,83.04,-0.06283,2.26
100,517.14,82.03,83.23,-0.06283,2.26
100,476.67,82.11,83.21,-0.06440,2.26
100,458.36,82.23,83.14,-0.06912,2.26
100,426.29,82.21,83.14,-0.07226,2.26
100,387.67,82.15,83.14,-0.07383,2.26
100,349.96,82.15,83.14,-0.07226,2.26
100,312.64,82.17,83.14,-0.07069,2.26
100,313.07,82.17,83.00,-0.06597,2.26
100,447.11,82.17,82.45,-0.06440,2.26
100,539.69,82.10,82.15,-0.06283,2.26
100,524.44,81.92,82.17,-0.06126,2.26
100,512.13,81.84,82.17,-0.06126,2.26
100,502.36,81.92,82.16,-0.06126,2.26
100,497.21,81.91,82.15,-0.05969,2.26
100,541.38,81.90,81.97,-0.05498,2.26
100,560.75,81.85,81.91,-0.05498,2.26
100,557.21,81.81,81.91,-0.05498,2.26
100,553.66,81.82,81.91,-0.05655,2.26
100,550.52,81.84,81.91,-0.05655,2.26
100,547.72,81.84,81.91,-0.05655,2.26
100,544.83,81.83,81.91,-0.05655,2.26
100,541.85,81.83,81.91,-0.05655,2.26
100,538.89,81.83,81.91,-0.05812,2.26
100,535.95,81.83,81.91,-0.05969,2.26
100,533.01,81.83,81.91,-0.05969,2.26
100,530.07,81.83,81.91,-0.06126,2.26
100,527.12,81.83,81.91,-0.06283,2.26
100,524.18,81.83,81.91,-0.06440,2.26
100,504.78,81.83,81.96,-0.06912,2.26
100,495.67,81.83,81.98,-0.07069,2.26
100,489.71,81.85,81.98,-0.07226,2.26
100,485.97,81.85,81.98,-0.06912,2.26
100,488.30,81.85,81.95,-0.06440,2.26
100,505.63,81.84,81.89,-0.06283,2.26
100,513.03,81.82,81.85,-0.06126,2.26
100,519.18,81.81,81.83,-0.06126,2.26
100,519.35,81.81,81.83,-0.05969,2.26
100,810.79,123.54,81.93,-0.06126,-10.02
100,810.79,87.48,84.46,-0.06126,0.92
100,-100.25,68.66,88.57,-0.06126,2.69
100,-810.79,78.26,88.60,-0.05969,2.64
100,516.30,86.91,83.40,-0.05969,0.63
100,810.79,91.20,80.55,-0.05812,-1.34
100,810.79,93.22,82.30,-0.05498,0.93
100,660.56,83.29,86.27,-0.05498,1.31
100,-443.55,81.70,89.12,-0.05498,1.09
100,-370.38,86.69,88.25,-0.05655,-0.19
100,543.26,92.93,85.68,-0.05969,-1.05
100,810.79,94.31,85.07,-0.06126,-1.05
100,589.68,91.68,87.73,-0.06597,-1.13
100,50.16,90.72,89.70,-0.07226,-0.79
100,218.67,94.41,89.25,-0.07540,-1.42
100,657.63,106.78,88.58,-0.07697,-5.06
100,733.67,94.91,90.68,-0.08168,-1.83
100,-312.05,92.00,94.46,-0.08796,-2.05
100,-660.50,97.48,95.11,-0.09111,-2.45
100,268.07,102.97,92.55,-0.08796,-3.39
100,810.79,98.94,91.77,-0.08482,-2.76
100,8.20,80.39,94.93,-0.08482,1.90
100,-810.79,81.38,95.87,-0.08482,2.43
100,14.94,86.16,91.13,-0.07854,2.65
100,810.79,85.48,86.89,-0.07069,3.61
100,810.79,78.96,87.65,-0.07069,1.42
100,-101.22,85.19,90.03,-0.07383,0.37
100,-133.13,91.31,89.90,-0.07226,2.26
100,240.52,84.10,88.18,-0.06754,2.08
100,731.71,82.35,85.99,-0.06440,1.01
100,611.27,87.21,86.52,-0.06440,1.01
100,444.48,85.23,86.86,-0.06440,1.68
100,633.37,87.84,86.38,-0.06440,0.55
100,572.70,88.34,86.80,-0.06440,-0.02
100,668.33,90.30,86.81,-0.06440,-0.28
100,716.12,89.34,87.12,-0.06440,-0.09
100,530.43,88.82,87.98,-0.06597,-0.00
100,564.23,92.69,88.02,-0.06912,-0.99
100,720.24,98.53,88.27,-0.07069,-2.59
100,626.39,97.69,89.91,-0.07226,-2.61
100,373.05,95.39,91.49,-0.07697,-2.39
100,491.28,89.75,91.30,-0.07854,-0.55
100,546.13,90.55,91.00,-0.08482,-2.46
100,624.69,98.74,91.17,-0.08639,-4.70
100,600.34,106.54,92.78,-0.08796,-4.81
100,369.80,104.81,95.06,-0.08954,-2.15
100,128.38,93.78,96.15,-0.08639,1.93
100,-286.58,80.51,96.10,-0.08639,1.26
100,-543.42,86.11,95.42,-0.08482,4.98
100,-475.24,78.01,93.29,-0.08168,4.98
100,-91.43,79.91,90.34,-0.07854,3.93
100,809.93,90.66,87.28,-0.07383,1.15
100,780.98,89.58,87.94,-0.07226,-0.34
100,120.18,90.31,90.26,-0.07226,0.56
100,46.11,81.81,90.02,-0.06912,2.32
100,271.04,81.32,88.21,-0.06754,2.72
100,745.70,89.76,86.00,-0.06597,0.60
100,667.58,93.66,86.98,-0.06440,-0.60
100,404.65,80.68,88.20,-0.06440,2.51
100,345.17,84.94,87.55,-0.06440,0.85
100,720.71,92.76,86.33,-0.06440,-0.34
100,613.90,91.95,87.57,-0.06597,-1.01
100,497.23,91.69,88.33,-0.06754,0.11
100,632.23,88.24,88.16,-0.06912,-1.75
100,702.59,94.63,88.34,-0.07069,-4.34
100,790.64,104.70,89.66,-0.07383,-1.64
100,199.89,94.17,92.60,-0.07854,0.52
100,-302.55,84.02,93.49,-0.08482,-1.53
100,-349.25,94.26,93.35,-0.08796,-1.53
100,37.49,107.02,93.31,-0.09111,-4.11
100,613.80,109.84,93.42,-0.09111,-5.61
100,580.85,105.66,95.28,-0.08954,-3.60
100,36.14,97.41,97.35,-0.08954,0.09
100,-457.94,86.46,97.65,-0.08796,2.16
100,-552.71,76.06,95.97,-0.08482,5.15
100,-215.98,77.00,92.37,-0.08011,5.14
100,503.07,88.25,88.28,-0.07540,2.08
100,810.79,95.25,86.80,-0.07226,-0.34
100,523.70,87.44,89.67,-0.07383,0.73
100,-381.23,82.58,91.97,-0.07226,1.49
100,-502.09,82.38,91.03,-0.07069,2.42
100,92.19,84.42,88.07,-0.06754,0.85
100,810.79,89.42,85.09,-0.06597,-1.48
100,810.79,95.68,86.26,-0.06283,1.21
100,194.01,84.68,89.21,-0.06126,2.20
100,-241.05,79.63,89.54,-0.06126,1.62
100,2.05,85.27,87.88,-0.06126,-0.73
100,810.79,95.33,85.63,-0.06440,-0.73
100,810.79,95.47,86.04,-0.06440,-1.30
100,472.66,91.38,89.11,-0.06912,-1.24
100,-100.44,88.23,90.79,-0.07383,-0.41
100,-57.78,90.41,90.50,-0.07697,-4.44
100,653.09,105.85,89.81,-0.07854,-3.84
100,760.47,103.69,91.45,-0.08482,-1.29
100,-401.35,97.16,95.07,-0.08954,-3.35
100,-577.07,99.13,95.64,-0.09268,-2.31
100,120.07,100.62,93.82,-0.08954,-3.02
100,766.89,96.66,92.61,-0.08482,-2.24
100,310.84,83.01,94.35,-0.08639,1.41
100,-512.63,78.79,95.36,-0.08325,2.96
100,-480.83,83.38,93.16,-0.08011,5.58
100,315.64,76.20,89.05,-0.07383,4.56
100,810.79,77.05,86.10,-0.07069,0.23
100,486.74,92.20,86.96,-0.07069,-1.04
100,728.55,96.52,87.08,-0.06754,1.30
100,446.68,84.34,88.38,-0.06597,3.04
100,176.82,76.36,88.06,-0.06440,3.04
100,315.05,80.58,86.48,-0.06283,2.86
100,810.79,90.20,84.87,-0.06283,0.87
100,622.36,92.74,86.67,-0.06283,-0.23
100,359.53,89.38,87.80,-0.06283,0.98
100,437.71,84.57,87.21,-0.06440,0.75
100,657.63,86.44,86.45,-0.06440,-0.48
100,618.44,92.13,87.24,-0.06597,-0.84
100,607.67,90.74,87.96,-0.06754,-0.64
100,615.72,93.89,88.26,-0.06912,-1.66
100,735.89,96.03,88.65,-0.07226,-2.04
100,487.08,98.65,90.43,-0.07540,-3.00
100,535.85,92.42,91.05,-0.07854,-1.21
100,639.46,100.08,91.14,-0.08325,-3.65
100,535.49,102.09,92.77,-0.08796,-3.48
100,224.90,99.87,94.78,-0.09111,-3.38
100,75.79,99.26,95.78,-0.09111,-1.61
100,173.37,94.36,95.58,-0.08796,2.22
100,94.97,81.68,94.88,-0.08482,3.15
100,-147.98,79.55,93.90,-0.08325,3.15
100,-132.79,82.29,92.29,-0.07854,3.39
100,98.28,78.66,90.01,-0.07697,4.69
100,670.46,87.82,87.53,-0.07226,1.54
100,783.79,94.79,88.05,-0.07069,-0.43
100,228.78,91.63,90.28,-0.07069,0.98
100,148.83,84.63,89.90,-0.06912,3.12
100,300.84,78.47,88.05,-0.06754,2.53
100,732.08,82.52,86.02,-0.06597,-0.24
100,671.87,94.47,87.25,-0.06597,-0.90
100,462.60,81.79,88.59,-0.06597,1.89
100,465.43,85.69,87.73,-0.06440,0.57
100,719.81,93.98,86.88,-0.06440,-0.78
100,652.17,92.89,88.07,-0.06597,-0.65
100,463.00,90.39,89.06,-0.06754,0.03
100,590.50,88.42,88.76,-0.07069,-1.65
100,633.25,94.91,88.87,-0.07226,-3.57
100,684.28,102.32,89.89,-0.07383,-3.02
100,483.45,98.96,91.89,-0.07854,1.01
100,199.84,83.26,92.61,-0.08482,1.01
100,347.81,104.02,92.29,-0.08639,-4.85
100,807.57,108.40,92.69,-0.08954,-4.53
100,269.90,105.26,96.23,-0.09111,-5.20
100,-559.65,93.13,98.94,-0.09425,-2.16
100,-488.39,94.69,97.85,-0.09268,1.62
100,110.66,86.45,94.74,-0.08482,2.91
100,637.47,81.49,91.58,-0.08011,3.31
100,526.93,81.26,90.83,-0.07697,3.62
100,170.03,80.84,90.72,-0.07540,4.53
100,-203.61,89.88,90.31,-0.07383,0.88
100,115.76,95.60,89.21,-0.07226,-0.47
100,791.25,85.16,87.76,-0.06754,1.53
100,420.51,76.93,88.50,-0.06440,3.07
100,240.93,82.04,87.70,-0.06440,2.37
100,557.19,85.02,86.05,-0.06440,0.21
100,780.69,90.87,85.56,-0.06440,-0.61
100,548.02,92.22,87.06,-0.06440,1.04
100,520.46,85.00,87.33,-0.06440,1.42
100,539.93,83.26,86.89,-0.06440,1.42
100,638.50,91.99,86.66,-0.06597,-0.55
100,721.62,96.33,87.37,-0.06754,-1.55
100,495.54,92.90,88.96,-0.06912,-1.23
100,562.45,92.19,89.12,-0.07226,-1.43
100,688.79,98.44,89.67,-0.07383,-2.91
100,508.89,99.08,91.41,-0.07854,-1.32
100,276.72,92.20,92.41,-0.08639,-0.42
100,157.27,89.08,92.41,-0.08796,-4.44
100,629.01,104.99,92.17,-0.08796,-5.11
100,669.07,108.94,94.27,-0.08796,-2.76
100,-233.31,82.07,97.44,-0.08796,1.00
100,-810.79,86.79,97.18,-0.08954,0.85
100,202.71,82.73,92.40,-0.08168,3.57
100,810.79,82.69,88.78,-0.07540,2.93
100,433.34,82.06,90.13,-0.07540,4.98
100,-294.24,75.05,91.13,-0.07540,2.35
100,-464.88,84.43,89.96,-0.07383,0.21
100,167.87,93.95,87.59,-0.06754,0.35
100,810.79,90.62,85.66,-0.06440,0.35
100,739.60,83.15,86.88,-0.06126,1.32
100,29.82,77.33,88.24,-0.05969,3.09
100,-26.24,82.76,87.34,-0.05969,2.34
100,593.62,92.92,85.42,-0.06126,0.04
100,810.79,92.99,85.60,-0.06126,-0.42
100,350.02,89.11,87.95,-0.06126,1.31
100,177.79,82.99,87.99,-0.06283,0.64
100,467.88,86.97,86.76,-0.06440,-1.47
100,810.79,96.26,86.59,-0.06754,-2.03
100,437.23,97.09,89.30,-0.07069,-1.98
100,295.16,94.01,90.24,-0.07540,-1.59
100,554.50,99.90,89.70,-0.07697,-3.31
100,746.86,96.28,90.50,-0.08168,-2.05
100,71.22,94.70,93.36,-0.08796,-2.17
100,-438.80,95.00,95.10,-0.09111,-1.80
100,-465.22,96.35,95.10,-0.09111,-3.00
100,-124.17,100.70,94.28,-0.08796,-2.13
100,389.62,97.23,93.27,-0.08639,-1.74
100,642.25,94.15,92.88,-0.08011,-1.74
100,203.32,75.09,93.63,-0.08011,4.00
100,-460.86,69.19,93.13,-0.07697,5.94
100,-489.46,76.65,90.49,-0.07540,5.41
100,780.96,101.68,86.25,-0.06912,-1.28
100,810.79,95.21,85.45,-0.06597,-0.14
100,781.17,81.35,88.33,-0.06440,1.23
100,-306.45,81.89,90.85,-0.06283,3.33
100,-526.24,80.28,90.16,-0.06126,2.44
100,6.55,84.45,87.53,-0.06283,0.43
100,810.79,91.58,84.71,-0.06283,-0.42
100,810.79,92.52,85.78,-0.06126,0.19
100,237.02,87.25,88.58,-0.06283,1.61
100,-110.34,89.64,88.77,-0.06283,0.04
100,392.16,97.46,87.25,-0.06597,-1.60
100,810.79,101.62,86.81,-0.06754,-3.48
100,628.24,98.74,89.92,-0.07069,-0.69
100,46.76,88.35,92.46,-0.07697,-0.87
100,-98.85,90.50,92.38,-0.08011,-3.38
100,283.73,102.64,91.37,-0.08325,-3.38
100,779.12,97.95,91.02,-0.08639,-2.02
100,392.67,105.88,93.55,-0.08796,-5.58
100,142.91,102.21,95.63,-0.08954,-4.06
100,38.69,96.81,96.40,-0.09111,-2.88
100,-160.32,81.79,96.14,-0.08954,1.89
100,-450.02,87.51,95.67,-0.08639,0.65
100,-255.63,92.22,94.34,-0.08325,3.34
100,15.73,81.88,92.33,-0.08011,4.04
100,254.54,77.01,89.84,-0.07697,3.20
100,656.61,81.76,87.46,-0.07226,0.97
100,649.93,90.43,87.82,-0.07069,-0.05
100,467.79,92.18,88.79,-0.06754,2.04
100,515.03,82.43,87.92,-0.06597,2.89
100,519.29,83.78,86.79,-0.06440,2.13
100,565.47,91.14,86.39,-0.06440,0.36
100,633.30,87.22,86.74,-0.06440,1.11
100,558.00,84.74,86.95,-0.06440,0.39
100,561.39,88.08,86.75,-0.06440,0.02
100,633.41,90.33,86.76,-0.06440,0.02
100,672.17,89.18,87.05,-0.06597,0.12
100,587.47,92.06,87.68,-0.06754,-0.96
100,650.39,95.65,88.18,-0.06912,-1.87
100,682.71,97.99,89.17,-0.07226,-2.70
100,456.27,95.79,90.84,-0.07540,-2.31
100,465.46,89.33,90.93,-0.07854,-0.52
100,786.28,106.86,90.99,-0.08325,-5.45
100,488.55,109.30,94.26,-0.08954,-3.14
100,-345.95,96.94,97.74,-0.09425,-3.21
100,-664.31,96.57,98.35,-0.09425,-2.48
100,135.78,98.76,95.71,-0.08954,-0.35
100,763.00,92.29,93.53,-0.08482,-0.36
100,445.90,90.73,94.34,-0.08325,3.88
100,-183.75,77.32,94.35,-0.08011,6.00
100,-641.02,80.71,92.82,-0.07854,4.15
100,-0.98,99.57,89.30,-0.07383,-0.72
100,810.79,96.20,86.52,-0.06912,-0.26
100,810.79,87.35,88.20,-0.06597,2.07
100,56.28,79.50,91.38,-0.06597,2.07
100,-571.91,78.37,91.87,-0.06440,3.49
100,-250.15,86.57,89.25,-0.06440,2.06
100,810.79,96.02,85.59,-0.06440,-0.60
100,810.79,93.44,85.51,-0.06283,-0.82
100,636.86,84.04,88.53,-0.06283,0.76
100,-325.70,79.40,90.64,-0.06440,2.30
100,-408.23,88.33,89.95,-0.06597,0.82
100,251.07,90.74,87.72,-0.06912,-1.64
100,810.79,96.34,86.18,-0.06912,-4.33
100,810.79,103.65,88.76,-0.06912,-1.15
100,-50.57,91.08,92.36,-0.07540,-0.68
100,-503.94,87.79,93.21,-0.07854,-2.64
100,-73.50,98.91,92.18,-0.08482,-3.73
100,731.06,104.74,91.08,-0.08796,-4.48
100,645.80,104.03,93.24,-0.08954,-5.43
100,-94.42,89.40,96.95,-0.09111,-0.78
100,-810.79,82.66,98.03,-0.09111,1.43
100,-155.20,87.63,93.87,-0.08639,1.61
100,810.79,88.71,89.66,-0.07854,1.61
100,810.79,84.98,89.94,-0.07540,1.89
100,-159.21,73.89,92.44,-0.07540,4.80
100,-749.97,70.59,91.69,-0.07540,6.18
100,182.31,94.80,86.84,-0.07069,0.12
100,810.79,103.29,83.55,-0.06440,-2.10
100,810.79,85.27,85.22,-0.06126,0.73
100,343.52,72.46,89.07,-0.05812,3.22
100,-774.66,78.12,90.69,-0.05655,3.19
100,-7.67,84.17,86.84,-0.05812,0.61
100,810.79,91.95,82.91,-0.05812,-0.65
100,810.79,92.91,83.16,-0.05812,-0.40
100,810.79,88.40,86.09,-0.05812,1.04
100,-124.37,82.98,89.68,-0.05969,0.97
100,-461.59,85.50,90.00,-0.06440,-0.68
100,166.69,94.17,88.26,-0.06912,-1.64
100,810.79,97.29,86.72,-0.07069,-2.69
100,804.88,98.17,88.98,-0.07226,-3.36
100,103.92,98.50,92.28,-0.07854,-0.29
100,-19.70,89.10,93.20,-0.08325,-0.29
100,-91.94,91.99,92.97,-0.08639,-1.07
100,95.27,103.22,92.44,-0.09111,-3.53
100,673.25,110.41,92.14,-0.08954,-5.74
100,537.92,98.74,94.68,-0.08796,-3.32
100,-444.46,83.95,97.69,-0.08954,0.29
100,-782.46,79.92,96.53,-0.08639,2.62
100,249.00,79.89,91.07,-0.07854,4.18
100,810.79,84.27,87.21,-0.07226,3.07
100,740.42,82.62,88.40,-0.07226,4.54
100,-335.38,75.45,90.56,-0.07383,2.04
100,-496.84,84.62,89.70,-0.07226,-0.05
100,457.46,94.60,86.73,-0.06597,0.37
100,810.79,90.59,85.39,-0.06283,0.46
100,649.97,85.88,87.30,-0.06126,2.82
100,-89.07,78.22,88.58,-0.06126,1.86
100,31.84,83.53,87.39,-0.06126,0.18
100,794.79,92.26,85.44,-0.06126,-0.77
100,810.79,86.47,86.16,-0.06126,0.48
100,240.40,85.40,88.43,-0.06283,0.48
100,175.56,87.43,88.20,-0.06440,0.75
100,613.97,93.36,86.73,-0.06597,-0.74
100,745.13,95.58,87.39,-0.06912,-1.63
100,396.60,97.43,89.49,-0.07226,-2.73
100,650.28,97.92,89.61,-0.07383,-2.93
100,664.39,97.36,90.69,-0.07697,-2.86
100,174.31,86.49,92.57,-0.08639,0.33
100,-79.50,98.95,93.19,-0.08954,-3.18
100,303.29,108.38,93.18,-0.08954,-4.78
100,702.32,105.52,93.68,-0.08796,-4.67
100,350.51,101.73,96.06,-0.08796,-2.21
100,-10.14,94.13,97.25,-0.08954,1.81
100,-311.34,82.32,96.82,-0.08639,5.29
100,-638.01,72.93,95.19,-0.08482,5.27
100,-211.19,76.35,91.26,-0.07854,2.96
100,810.79,86.81,87.08,-0.07383,-0.26
100,810.79,95.94,87.22,-0.07226,0.80
100,173.42,87.85,90.76,-0.07226,1.77
100,-631.63,84.02,92.01,-0.07069,1.77
100,-213.93,80.36,89.54,-0.06754,3.76
100,618.10,87.14,85.74,-0.06597,1.39
100,810.79,96.35,84.68,-0.06283,-1.35
100,772.32,87.37,87.22,-0.06126,0.60
100,-72.19,77.87,89.58,-0.06126,2.60
100,-279.98,86.55,88.95,-0.06126,0.92
100,337.40,95.14,86.92,-0.06283,-0.54
100,810.79,94.27,85.75,-0.06440,-0.98
100,684.59,89.99,87.95,-0.06754,-0.80
100,77.70,89.89,89.99,-0.07226,-0.45
100,197.88,90.96,89.58,-0.07540,-2.94
100,720.46,100.05,88.72,-0.07540,-3.71
100,624.42,102.42,90.82,-0.08011,-1.46
100,-150.85,91.98,93.85,-0.08639,-2.38
100,-616.57,94.64,95.20,-0.08954,-2.24
100,-227.39,98.18,94.15,-0.08954,-4.86
100,568.72,107.23,92.99,-0.08796,-3.67
100,644.80,101.96,94.15,-0.08482,2.01
100,-492.05,79.31,96.15,-0.08639,2.01
100,-777.52,76.26,94.43,-0.08325,3.18
100,549.70,80.14,88.73,-0.07383,4.72
100,810.79,76.64,85.97,-0.06912,4.57
100,292.11,87.12,87.93,-0.07069,1.26
100,-4.21,93.99,88.77,-0.07069,-0.26
100,438.62,87.51,87.76,-0.06597,0.97
100,683.45,80.50,86.81,-0.06440,2.23
100,429.04,78.95,86.76,-0.06440,2.99
100,424.77,86.11,86.10,-0.06440,1.56
100,764.73,92.68,85.38,-0.06440,-0.13
100,617.87,90.50,86.75,-0.06440,0.48
100,415.73,86.11,87.44,-0.06440,0.94
100,621.99,85.32,86.55,-0.06440,-0.29
100,627.89,90.93,86.86,-0.06597,-0.86
100,660.27,93.27,87.46,-0.06754,-1.26
100,568.36,93.20,88.46,-0.06912,-1.66
100,659.60,93.83,88.80,-0.07226,-2.01
100,561.53,95.29,89.92,-0.07383,-3.86
100,639.60,101.61,90.97,-0.07697,-3.86
100,341.19,91.23,92.09,-0.08482,-0.77
100,127.07,89.43,92.42,-0.08796,-3.45
100,518.11,108.18,92.23,-0.08796,-4.94
100,738.62,104.05,93.65,-0.08796,-4.72
100,66.38,91.48,96.91,-0.08954,-1.68
100,-709.41,72.36,98.23,-0.09111,4.43
100,-633.49,76.56,94.50,-0.08482,4.41
100,793.27,87.37,88.07,-0.07540,2.92
100,810.79,88.52,85.71,-0.06912,1.92
100,810.79,84.16,87.96,-0.07069,1.71
100,-280.68,83.10,91.61,-0.07226,2.21
100,-615.17,83.79,91.38,-0.07226,1.21
100,294.66,88.56,87.73,-0.06912,0.19
100,810.79,91.42,85.28,-0.06440,-1.41
100,810.79,94.26,86.78,-0.06283,1.96
100,109.08,81.40,89.84,-0.06126,2.73
100,-456.05,78.14,90.17,-0.06126,2.07
100,-172.15,84.92,88.31,-0.06283,-0.81
100,810.79,96.46,85.73,-0.06283,-0.81
100,810.79,93.38,85.86,-0.06283,-0.55
100,373.44,84.18,88.46,-0.06440,0.78
100,-80.46,84.35,89.27,-0.06754,0.51
100,143.33,96.58,88.43,-0.07226,-1.46
100,806.85,104.65,87.43,-0.07226,-4.24
100,740.01,102.75,89.97,-0.07540,-4.46
100,-33.36,81.95,93.56,-0.08325,1.01
100,-770.64,93.69,94.56,-0.08954,-2.16
100,223.56,112.00,91.73,-0.08954,-5.39
100,810.79,108.87,90.97,-0.08796,-5.24
100,485.44,93.62,95.34,-0.08954,-2.74
100,-810.79,93.98,99.49,-0.09268,3.81
100,-732.95,78.12,96.84,-0.08639,4.39
100,456.84,76.91,90.56,-0.07854,4.47
100,810.79,79.76,86.98,-0.07069,3.43
100,677.08,82.25,88.22,-0.07226,2.61
100,-163.34,83.42,90.15,-0.07226,0.19
100,-67.57,91.23,89.58,-0.07069,0.38
100,516.39,90.80,87.87,-0.06754,0.38
100,693.30,83.28,87.03,-0.06440,1.84
100,436.48,80.55,87.08,-0.06440,2.37
100,526.07,82.52,86.17,-0.06440,2.09
100,588.06,84.63,85.81,-0.06440,-0.05
100,705.26,88.65,86.11,-0.06440,0.50
100,504.37,86.36,87.01,-0.06440,0.56
100,583.11,86.74,86.68,-0.06440,0.67
100,599.61,90.70,86.70,-0.06597,-0.26
100,697.15,94.72,87.02,-0.06754,-1.41
100,619.91,96.61,88.34,-0.06912,-2.27
100,503.55,91.69,89.48,-0.07226,-1.12
100,565.10,91.34,89.51,-0.07383,-3.45
100,718.05,100.84,89.75,-0.07697,-1.35
100,427.21,94.35,91.82,-0.08482,-3.41
100,-54.50,98.68,93.88,-0.08954,-2.94
100,-142.92,99.48,94.75,-0.09111,-4.24
100,73.57,103.51,94.91,-0.08954,-3.17
100,310.54,99.84,94.91,-0.08639,0.93
100,96.19,84.62,94.90,-0.08639,0.93
100,-163.60,87.43,94.76,-0.08325,0.26
100,-503.58,78.60,94.09,-0.08168,4.25
100,-451.20,78.10,91.85,-0.07854,5.25
100,-15.01,76.80,88.57,-0.07383,1.30
100,810.79,89.86,85.61,-0.06912,-0.39
100,810.79,85.93,86.44,-0.06754,0.93
100,146.93,78.11,89.39,-0.06597,2.55
100,-391.77,78.75,89.58,-0.06440,3.33
100,-194.36,86.16,87.66,-0.06283,2.07
100,700.08,93.83,84.77,-0.06283,-0.21
100,810.79,90.85,84.40,-0.06126,-0.21
100,572.24,81.54,87.00,-0.06126,1.57
100,-144.63,82.33,88.47,-0.06126,1.37
100,2.18,86.79,87.38,-0.06283,-0.26
100,688.35,92.73,85.41,-0.06440,-1.65
100,810.79,95.74,86.07,-0.06597,-2.65
100,377.40,96.76,88.98,-0.06912,-0.16
100,213.34,87.75,89.66,-0.07383,-1.87
100,485.94,93.76,89.03,-0.07540,-1.87
100,810.79,103.54,89.43,-0.07854,-3.88
100,91.10,94.00,92.76,-0.08639,-1.45
100,-544.06,97.58,95.21,-0.09111,-3.40
100,-341.94,101.11,95.06,-0.09111,-3.78
100,183.58,102.70,94.28,-0.08954,-3.24
100,626.52,99.74,93.58,-0.08639,-0.27
100,399.00,90.23,93.79,-0.08325,-0.64
100,352.27,73.18,93.38,-0.08011,5.39
100,-230.10,69.95,92.69,-0.07697,6.18
100,-496.66,84.37,90.94,-0.07540,3.29
100,219.03,101.07,88.19,-0.07226,-1.19
100,810.79,92.50,86.64,-0.06754,-0.03
100,631.87,85.79,89.03,-0.06597,2.23
100,-134.57,80.07,90.68,-0.06440,3.03
100,-323.20,80.48,89.90,-0.06440,2.24
100,82.98,85.41,87.63,-0.06440,-0.55
100,810.79,94.66,85.09,-0.06440,-0.57
100,810.79,92.56,86.33,-0.06283,1.05
100,124.86,83.52,89.14,-0.06283,1.05
100,-220.44,82.33,89.40,-0.06440,1.58
100,180.79,91.93,87.94,-0.06440,-0.19
100,810.79,98.44,86.49,-0.06754,-1.81
100,693.00,95.29,88.83,-0.06912,-2.93
100,184.94,96.32,91.22,-0.07383,0.24
100,103.68,87.04,91.04,-0.07697,-1.22
100,435.84,92.40,90.06,-0.07854,-4.23
100,810.79,96.25,90.50,-0.08325,-1.84
100,26.58,100.09,94.20,-0.08954,-4.24
100,-602.81,98.14,96.82,-0.09268,-2.68
100,-364.21,97.18,96.02,-0.09111,-2.31
100,135.38,89.63,94.36,-0.08639,0.06
100,438.98,86.05,92.69,-0.08325,1.02
100,573.81,87.62,91.57,-0.08011,4.24
100,311.86,77.53,91.49,-0.07697,5.21
100,-73.13,73.44,90.76,-0.07540,6.59
100,-320.92,71.37,89.26,-0.07226,-0.38
100,180.82,96.22,86.93,-0.06912,-0.99
100,810.79,99.05,85.26,-0.06440,-0.99
100,810.79,83.74,86.94,-0.06126,1.14
100,-188.92,73.26,89.05,-0.05969,3.48
100,-381.10,80.68,88.19,-0.05969,2.74
100,342.96,91.62,85.81,-0.06126,0.85
100,810.79,89.84,84.42,-0.06126,-0.36
100,623.62,89.46,86.41,-0.05969,-0.11
100,266.15,88.27,87.64,-0.06126,1.47
100,405.81,83.70,86.69,-0.06283,-0.01
100,754.10,94.92,86.00,-0.06440,-1.22
100,558.92,95.70,87.81,-0.06754,-1.93
100,553.61,96.52,88.69,-0.07069,-2.58
100,697.87,97.19,89.29,-0.07383,-2.78
100,415.45,92.16,91.03,-0.07854,-1.31
100,332.73,92.38,91.37,-0.08482,-2.11
100,478.30,96.88,91.18,-0.08639,-3.34
100,687.03,101.33,91.49,-0.08639,-5.07
100,464.50,105.94,93.70,-0.08639,-2.09
100,220.88,94.84,95.31,-0.08639,0.26
100,-12.91,85.74,95.38,-0.08639,0.26
100,-132.97,85.13,94.56,-0.08325,1.40
100,-196.13,78.57,93.11,-0.08011,4.23
100,-88.18,79.27,90.98,-0.07697,4.04
100,331.66,82.21,88.40,-0.07383,3.56
100,707.49,81.48,86.50,-0.07069,0.04
100,553.55,91.54,87.38,-0.06912,0.26
100,576.19,90.61,87.67,-0.06597,1.44
100,487.28,83.88,87.59,-0.06440,2.98
100,425.53,78.45,86.67,-0.06283,2.84
100,618.22,91.23,85.35,-0.06283,0.29
100,701.13,92.93,85.94,-0.06283,-0.40
100,519.88,86.94,87.27,-0.06440,0.45
100,564.92,85.20,86.99,-0.06440,0.76
100,609.11,90.71,86.79,-0.06440,-0.35
100,691.35,91.59,87.07,-0.06597,-0.90
100,580.66,91.97,88.03,-0.06754,-1.09
100,609.46,92.35,88.37,-0.07069,-1.95
100,731.11,95.41,88.67,-0.07226,-2.73
100,517.01,98.10,90.34,-0.07540,-2.73
100,427.35,92.05,91.15,-0.08011,-1.10
100,529.69,92.10,90.94,-0.08325,-1.27
100,703.22,102.93,91.32,-0.08639,-3.93
100,514.59,108.48,93.89,-0.08796,-5.41
100,2.49,97.55,96.39,-0.08954,-3.00
100,-266.82,96.08,97.16,-0.08954,1.21
100,-421.58,85.52,96.49,-0.08639,1.40
100,-352.40,85.75,94.89,-0.08482,3.22
100,-96.34,82.52,92.56,-0.08011,3.55
100,341.77,81.09,89.74,-0.07697,3.26
100,722.18,90.06,87.71,-0.07383,0.78
100,473.54,91.13,88.88,-0.07226,0.21
100,470.58,84.37,89.00,-0.06912,1.56
100,555.14,80.61,88.06,-0.06597,2.47
100,469.71,82.27,87.48,-0.06440,2.33
100,577.14,83.99,86.53,-0.06440,0.79
100,570.79,88.66,86.45,-0.06440,0.48
100,619.99,89.06,86.61,-0.06440,-0.17
100,624.25,89.81,86.91,-0.06440,-0.17
100,641.49,84.78,86.95,-0.06440,1.26
100,620.71,88.51,86.95,-0.06597,0.08
100,772.02,95.26,87.11,-0.06754,-1.44
100,592.95,97.38,88.92,-0.06912,-2.27
100,491.64,94.99,89.99,-0.07226,-2.11
100,666.94,94.66,90.05,-0.07540,-4.97
100,696.39,105.22,91.54,-0.07854,-1.86
100,177.71,95.32,93.96,-0.08796,-1.07
100,-359.99,89.88,95.26,-0.09111,-2.26
100,-349.21,96.99,95.24,-0.09268,-5.25
100,284.39,109.83,94.85,-0.09111,-3.88
100,602.16,95.51,94.98,-0.08796,-2.76
100,476.48,85.16,95.36,-0.08639,0.59
100,180.61,73.73,94.88,-0.08325,4.71
100,-317.92,73.03,93.82,-0.08011,5.81
100,-453.63,76.47,91.72,-0.07854,4.54
100,-90.46,80.85,88.77,-0.07383,-1.04
100,801.97,97.87,85.58,-0.06912,0.03
100,810.79,92.05,85.88,-0.06597,0.03
100,306.78,82.09,89.05,-0.06597,1.20
100,-461.38,75.42,90.15,-0.06440,3.60
100,-346.98,82.99,88.25,-0.06283,2.55
100,654.25,93.26,84.98,-0.06283,0.30
100,810.79,93.86,84.23,-0.06126,-0.62
100,730.52,85.10,86.71,-0.06126,0.66
100,-45.35,84.29,88.78,-0.06126,2.07
100,-35.56,83.03,87.98,-0.06283,0.25
100,562.10,90.35,86.08,-0.06440,-1.24
100,810.79,95.74,85.79,-0.06597,-2.93
100,668.52,98.87,88.70,-0.06754,-1.88
100,39.00,93.39,91.21,-0.07383,-0.71
100,-32.83,102.06,91.10,-0.07697,-3.86
100,650.40,91.78,90.20,-0.08011,-0.23
100,482.23,104.31,91.20,-0.08482,-5.15
100,582.81,107.27,92.55,-0.08796,-5.81
100,527.80,106.74,94.57,-0.08796,-1.41
100,335.75,91.06,96.14,-0.08954,0.16
100,-25.28,85.99,96.42,-0.08796,0.16
100,-358.56,78.99,96.00,-0.08639,3.66
100,-624.47,77.61,94.57,-0.08482,4.63
100,-118.23,82.84,91.03,-0.07854,3.65
100,787.19,84.72,87.27,-0.07383,3.04
100,810.79,89.20,87.32,-0.07226,0.89
100,113.03,86.97,89.72,-0.07226,1.05
100,-47.54,85.92,89.68,-0.06912,1.55
100,297.13,85.29,87.99,-0.06754,2.69
100,717.94,81.74,86.08,-0.06440,1.76
100,526.25,84.49,86.48,-0.06440,0.60
100,571.06,89.03,86.51,-0.06440,0.97
100,605.93,87.30,86.53,-0.06440,1.21
100,547.64,85.00,86.56,-0.06440,0.31
100,607.44,91.86,86.56,-0.06440,-0.48
100,669.85,89.64,87.05,-0.06597,-0.05
100,555.01,89.98,87.70,-0.06754,-0.48
100,625.80,90.74,87.78,-0.06912,-2.25
100,613.35,96.85,88.35,-0.07069,-1.74
100,664.75,95.23,89.21,-0.07383,-1.74
100,465.67,97.06,90.59,-0.07697,-2.77
100,513.58,89.97,90.95,-0.08325,-0.45
100,555.95,97.27,90.99,-0.08639,-2.71
100,737.04,108.35,91.85,-0.08796,-5.29
100,336.49,105.11,95.06,-0.08796,-4.78
100,-380.81,87.05,97.40,-0.08954,-0.34
100,-810.79,75.30,96.61,-0.08954,3.42
100,101.58,81.10,91.13,-0.08011,1.83
100,810.79,90.14,86.72,-0.07226,1.94
100,810.79,86.82,87.73,-0.07069,3.26
100,-177.13,78.00,91.23,-0.07226,5.31
100,-810.79,71.71,90.79,-0.07226,1.42
100,627.54,88.59,85.31,-0.06754,-1.31
100,810.79,100.39,82.77,-0.06126,-0.31
100,810.79,74.67,84.13,-0.05812,2.85
100,575.93,73.97,87.65,-0.05498,3.68
100,-638.51,80.31,89.72,-0.05341,2.40
100,-247.61,86.74,87.22,-0.05655,-0.27
100,810.79,93.68,83.59,-0.05655,-0.27
100,810.79,90.78,83.15,-0.05498,-0.39
100,810.79,84.76,85.64,-0.05655,0.49
100,-19.53,85.53,88.67,-0.05969,0.52
100,-119.25,88.84,88.60,-0.06283,0.47
100,495.71,97.52,87.03,-0.06912,-1.90
100,810.79,107.37,87.25,-0.07069,-5.11
100,516.77,98.86,91.14,-0.07540,-3.46
100,-285.55,95.97,94.33,-0.08325,-1.96
100,-559.24,94.30,95.16,-0.08954,-2.09
100,-277.42,96.89,94.33,-0.09111,-3.60
100,266.96,102.91,93.41,-0.09425,-5.04
100,741.10,106.96,93.56,-0.08796,-4.46
100,363.44,102.87,96.06,-0.08639,0.71
100,-411.89,83.86,97.30,-0.08796,0.43
100,-521.88,86.16,96.10,-0.08482,5.81
100,-422.82,75.76,93.08,-0.08011,5.20
100,129.93,92.42,89.24,-0.07697,1.01
100,810.79,91.49,86.57,-0.07069,0.61
100,723.81,86.62,88.58,-0.07226,0.61
100,-195.84,84.82,91.23,-0.07069,1.03
100,-383.62,80.96,90.79,-0.06912,2.89
100,-62.62,84.03,88.56,-0.06754,2.28
100,772.70,90.10,85.55,-0.06597,0.72
100,810.79,95.37,85.77,-0.06283,-1.29
100,302.50,81.15,88.63,-0.06283,2.19
100,-279.16,82.10,89.47,-0.06283,1.43
100,-53.78,89.93,88.23,-0.06283,0.54
100,694.73,90.53,86.07,-0.06440,-1.12
100,810.79,93.31,86.29,-0.06597,-1.96
100,416.54,95.08,88.94,-0.06754,-0.43
100,270.54,89.39,89.54,-0.07226,-1.85
100,565.63,94.27,89.02,-0.07383,-2.30
100,664.22,97.74,89.82,-0.07697,-1.85
100,316.88,94.99,91.59,-0.08325,-0.46
100,-7.62,89.26,92.38,-0.08639,-3.38
100,284.77,105.22,92.30,-0.08639,-4.13
100,717.20,102.40,92.55,-0.08639,-2.51
100,395.73,94.92,94.73,-0.08639,-2.51
100,-69.99,83.81,96.07,-0.08796,1.07
100,-535.39,81.29,95.95,-0.08482,2.59
100,-492.73,77.56,93.76,-0.08168,4.77
100,39.65,82.94,90.18,-0.07697,3.36
100,810.79,86.16,86.84,-0.07226,2.46
100,652.67,87.89,87.78,-0.07226,1.14
100,71.97,89.53,89.64,-0.07226,0.17
100,102.10,85.07,89.18,-0.06912,1.49
100,448.93,84.73,87.48,-0.06597,2.35
100,688.35,82.80,86.38,-0.06440,1.02
100,504.13,86.95,86.80,-0.06440,1.48
100,519.51,85.97,86.70,-0.06440,0.60
100,539.29,87.80,86.71,-0.06440,0.11
100,625.90,89.62,86.74,-0.06440,0.58
100,614.35,87.59,86.93,-0.06597,-0.09
100,683.16,89.21,86.96,-0.06597,-0.52
100,658.41,91.31,87.61,-0.06754,-1.63
100,574.44,94.21,88.71,-0.06912,-1.57
100,630.07,93.46,89.19,-0.07226,-1.57
100,556.58,99.12,89.96,-0.07383,-3.17
100,675.67,101.17,90.81,-0.07697,-3.57
100,366.33,85.66,92.80,-0.08482,0.61
100,-192.00,100.65,94.02,-0.08954,-3.99
100,129.56,110.77,94.08,-0.09111,-5.37
100,748.62,106.16,94.00,-0.08954,-4.99
100,287.72,89.61,96.41,-0.08796,-1.23
100,-721.81,77.21,98.07,-0.09111,2.67
100,-557.49,79.42,94.72,-0.08482,3.67
100,761.51,83.86,88.88,-0.07540,3.47
100,810.79,82.89,86.88,-0.07069,3.02
100,437.76,81.08,89.10,-0.07226,2.71
100,-373.70,81.77,90.63,-0.07226,0.34
100,-258.74,91.16,89.88,-0.07069,1.62
100,324.12,87.33,87.75,-0.06754,1.44
100,802.57,84.79,86.05,-0.06440,0.74
100,479.69,87.10,87.22,-0.06440,3.02
100,329.46,79.86,86.78,-0.06440,0.86
100,687.86,88.91,85.62,-0.06283,0.86
100,699.99,90.81,86.06,-0.06440,-0.31
100,517.32,91.18,87.17,-0.06440,-0.66
100,678.39,86.83,87.10,-0.06440,0.54
100,614.50,88.61,87.31,-0.06597,-0.05
100,634.34,93.76,87.53,-0.06912,-1.15
100,671.03,98.85,88.40,-0.06912,-2.68
100,520.75,93.26,89.97,-0.07226,-1.41
100,536.91,94.45,90.29,-0.07540,-2.18
100,540.89,88.44,90.54,-0.07854,0.14
100,310.14,88.25,90.99,-0.08482,-2.90
100,441.50,100.43,90.97,-0.08639,-5.38
100,810.79,109.59,91.59,-0.08639,-5.51
100,331.87,106.66,95.35,-0.08796,-0.44
100,-664.05,86.65,98.20,-0.08954,3.11
100,-772.42,75.80,95.79,-0.08639,0.64
100,775.01,90.78,89.70,-0.07854,2.20
100,810.79,88.97,87.58,-0.07226,2.01
100,640.18,83.58,90.27,-0.07383,4.78
100,-809.78,73.05,92.73,-0.07540,4.78
100,-141.43,89.21,89.81,-0.07226,0.64
100,810.79,94.73,86.20,-0.06597,-1.08
100,810.79,86.80,86.97,-0.06440,0.28
100,291.62,75.08,90.12,-0.06126,3.51
100,-590.75,80.35,91.00,-0.06126,2.84
100,-180.45,91.89,88.52,-0.06126,0.80
100,810.79,93.65,85.31,-0.06126,-0.08
100,810.79,87.98,85.91,-0.06126,0.19
100,240.49,82.01,88.75,-0.06283,1.46
100,-155.33,86.96,89.29,-0.06440,0.64
100,137.63,89.84,88.15,-0.06754,-1.01
100,810.79,94.30,86.51,-0.06912,-3.36
100,725.53,100.80,88.42,-0.07069,-3.47
100,309.36,99.66,91.09,-0.07383,-0.76
100,242.80,89.16,91.42,-0.07697,-3.32
100,613.51,98.41,90.74,-0.08325,-2.90
100,598.18,100.49,92.08,-0.08796,-5.11
100,331.08,105.67,94.47,-0.09111,-4.31
100,148.25,102.55,96.03,-0.09111,-4.31
100,108.67,98.92,96.50,-0.08954,-3.52
100,318.03,100.13,96.26,-0.08954,0.06
100,101.85,85.36,96.19,-0.08639,1.11
100,-270.02,77.31,95.99,-0.08482,4.34
100,-625.92,76.87,94.70,-0.08325,4.86
100,-138.44,93.07,91.15,-0.07854,0.72
100,810.79,96.44,87.74,-0.07383,-0.34
100,810.79,85.20,88.99,-0.07226,1.19
100,-130.58,78.88,91.77,-0.07069,2.39
100,-533.18,81.74,91.44,-0.06754,2.70
100,-95.61,84.65,88.87,-0.06754,2.11
100,787.22,85.73,85.60,-0.06754,-0.89
100,810.79,93.89,85.79,-0.06440,-0.32
100,387.42,90.87,88.47,-0.06440,2.08
100,52.30,80.58,88.93,-0.06440,1.52
100,223.64,83.57,87.52,-0.06440,-0.55
100,810.79,93.92,85.91,-0.06754,-1.82
100,790.39,97.60,87.72,-0.06912,-2.06
100,226.75,94.90,90.34,-0.07226,-2.06
100,117.49,88.74,90.56,-0.07697,-0.54
100,541.32,98.69,89.99,-0.07854,-3.08
100,776.26,101.10,90.76,-0.08168,-2.17
100,33.07,94.55,93.75,-0.08954,-2.27
100,-500.50,104.43,95.54,-0.09268,-4.44
100,-196.73,105.87,95.60,-0.09268,-4.43
100,267.69,96.06,95.18,-0.09268,-2.32
100,335.64,86.68,94.86,-0.08796,0.08
100,15.24,85.81,94.86,-0.08639,1.05
100,-425.76,74.41,94.73,-0.08482,5.34
100,-642.48,73.93,92.65,-0.08011,5.57
100,171.29,76.97,87.84,-0.07540,3.63
100,810.79,82.89,84.17,-0.06912,-0.31
100,810.79,93.81,85.28,-0.06912,0.61
100,110.96,88.37,88.64,-0.06912,2.41
100,-332.42,79.33,89.21,-0.06597,2.96
100,-265.44,79.34,87.68,-0.06597,1.71
100,432.90,86.66,84.99,-0.06597,-0.38
100,810.79,93.79,83.80,-0.06283,-0.38
100,684.12,89.59,86.19,-0.06283,0.00
100,-111.62,79.97,88.05,-0.06283,2.00
100,-226.79,81.45,87.50,-0.06283,1.26
100,290.41,87.65,85.72,-0.06440,-0.65
100,810.79,93.41,84.63,-0.06597,-1.10
100,606.76,94.98,87.11,-0.06754,-2.35
100,279.31,88.32,88.88,-0.07069,-0.21
100,440.14,101.72,88.48,-0.07383,-4.10
100,810.79,100.13,88.77,-0.07540,-2.93
100,192.19,83.50,92.00,-0.08639,0.86
100,-751.49,94.64,94.22,-0.09111,-2.35
100,-90.56,100.95,92.28,-0.09111,-4.91
100,810.79,107.23,90.53,-0.08796,-4.55
100,706.49,103.13,93.32,-0.08639,-1.97
100,-403.97,92.03,97.33,-0.09111,5.14
100,-810.79,69.82,97.08,-0.08796,6.47
100,-252.05,69.30,90.57,-0.07854,3.51
100,810.79,85.69,83.83,-0.06912,1.15
100,810.79,92.79,82.72,-0.06754,1.15
100,810.79,89.47,85.87,-0.06754,0.13
100,-123.01,80.74,91.00,-0.07069,1.73
100,-810.79,82.33,91.83,-0.06912,2.77
100,304.74,83.32,86.84,-0.06754,1.14
100,810.79,89.13,83.43,-0.06440,-0.24
100,810.79,92.87,84.90,-0.06283,-1.35
100,588.21,80.40,88.69,-0.05969,2.06
100,-565.25,78.21,91.15,-0.05969,2.85
100,-341.03,93.10,88.84,-0.06126,-0.15
100,810.79,97.00,84.96,-0.06283,-0.91
100,810.79,92.42,84.94,-0.06283,-1.18
100,810.79,85.75,87.99,-0.06597,0.04
100,-190.72,87.35,91.10,-0.07226,0.45
100,-344.60,89.47,91.09,-0.07854,-1.99
100,157.24,98.23,89.73,-0.08011,-6.32
100,810.79,112.22,88.94,-0.08011,-3.47
100,668.28,99.71,92.42,-0.08482,-4.27
100,-529.85,97.77,96.94,-0.09268,-0.73
100,-802.86,90.23,97.00,-0.09582,-0.73
100,347.80,98.92,93.06,-0.08954,-2.60
100,810.79,104.86,91.25,-0.08482,-3.68
100,634.46,89.81,94.16,-0.08639,-0.26
100,-738.28,86.82,97.57,-0.08796,1.95
100,-534.91,84.36,94.93,-0.08325,5.72
100,451.38,74.09,89.28,-0.07697,6.05
100,810.79,99.20,86.08,-0.07069,-1.38
100,810.79,93.85,88.08,-0.07226,0.23
100,-15.64,79.09,91.32,-0.07226,2.33
100,-544.00,76.89,91.30,-0.06912,3.31
100,-240.68,88.24,88.71,-0.06754,1.42
100,810.79,94.84,85.24,-0.06597,-0.19
100,810.79,90.61,85.34,-0.06440,0.04
100,503.74,86.60,88.34,-0.06283,2.25
100,-190.08,80.52,89.87,-0.06283,1.24
100,-123.21,86.20,88.72,-0.06440,-0.38
100,613.08,93.95,86.48,-0.06597,-1.04
100,810.79,94.45,86.48,-0.06754,-1.40
100,371.44,92.47,89.26,-0.06912,-1.40
100,64.01,86.91,90.12,-0.07540,0.17
100,527.31,100.54,89.28,-0.07697,-3.46
100,810.79,103.69,90.24,-0.07854,-3.70
100,176.85,99.77,93.58,-0.08796,-1.14
100,-575.23,89.97,95.71,-0.09268,-1.67
100,-405.24,93.60,94.66,-0.09425,-3.34
100,453.71,103.20,92.84,-0.09111,-5.00
100,810.79,98.70,93.07,-0.08796,-3.24
100,115.05,78.47,96.64,-0.08954,2.06
100,-810.79,86.79,97.79,-0.08796,0.52
100,-83.48,76.44,93.04,-0.08168,5.74
100,810.79,79.77,87.82,-0.07383,3.89
100,810.79,92.03,87.26,-0.07383,0.51
100,317.95,90.78,90.24,-0.07540,1.27
100,-228.02,84.92,91.64,-0.07540,0.62
100,-125.05,87.64,90.52,-0.07069,2.73
100,410.33,82.46,88.09,-0.06912,0.85
100,810.79,87.68,86.47,-0.06754,0.16
100,484.51,90.68,88.03,-0.06754,0.16
100,415.68,84.84,88.09,-0.06754,1.48
100,572.49,85.39,87.21,-0.06754,1.06
100,741.56,92.43,87.10,-0.06754,-0.56
100,506.55,91.46,88.44,-0.06754,-0.27
100,596.25,89.42,88.25,-0.06912,0.43
100,580.72,87.36,88.27,-0.07069,-0.83
100,677.73,92.23,88.37,-0.07226,-2.52
100,715.17,98.81,89.58,-0.07383,-3.52
100,468.31,91.32,91.72,-0.07697,-1.15
100,322.04,91.58,92.06,-0.08011,-1.37
100,385.17,104.46,91.96,-0.08639,-4.26
100,704.73,105.64,92.60,-0.08954,-4.39
100,345.22,102.93,95.36,-0.09268,-4.68
100,-45.42,102.68,97.47,-0.09425,-2.50
100,-124.99,96.89,98.05,-0.09268,0.59
100,-138.87,86.96,97.51,-0.09111,2.36
100,-337.35,82.39,96.58,-0.08796,4.80
100,-440.74,76.89,94.81,-0.08482,3.79
100,-238.56,81.43,92.24,-0.08168,3.79
100,430.02,88.62,89.19,-0.07697,2.01
100,810.79,93.73,88.01,-0.07540,-0.09
100,270.07,88.32,90.60,-0.07383,0.54
100,-215.88,80.93,91.12,-0.07226,2.15
100,-51.08,82.93,89.41,-0.06912,3.09
100,532.28,82.29,86.64,-0.06912,1.36
100,810.79,87.33,85.59,-0.06597,-2.15
100,715.19,98.53,87.75,-0.06597,0.93
100,57.41,86.54,89.71,-0.06597,1.59
100,-65.05,86.80,88.99,-0.06597,0.98
100,439.06,95.06,87.09,-0.06754,-0.79
100,810.79,98.52,86.62,-0.06754,-2.33
100,492.54,88.98,89.54,-0.06912,-0.41
100,-64.39,87.54,91.07,-0.07540,-0.26
100,4.10,90.98,90.47,-0.07697,-2.98
100,493.70,101.27,89.31,-0.07854,-3.36
100,772.53,101.58,90.14,-0.08325,-1.57
100,-1.61,92.06,93.58,-0.08796,-1.13
100,-712.36,90.63,95.44,-0.09111,-1.13
100,-276.45,94.93,93.55,-0.09111,-1.27
100,699.70,102.32,91.06,-0.08639,-3.11
100,810.79,97.78,91.95,-0.08168,-2.30
100,-398.24,78.85,95.26,-0.08482,2.35
100,-810.79,67.50,94.14,-0.08325,6.03
100,128.55,73.91,87.27,-0.07383,5.37
100,810.79,79.67,81.76,-0.06597,3.52
100,810.79,82.30,82.02,-0.06597,-0.04
100,669.17,90.59,86.11,-0.06754,1.27
100,-491.23,85.26,89.60,-0.06597,2.99
100,-525.71,82.80,87.98,-0.06440,2.28
100,663.97,91.98,83.54,-0.06283,0.26
100,810.79,93.71,82.00,-0.05969,-0.89
100,810.79,82.25,84.36,-0.05969,1.38
100,61.09,81.46,87.90,-0.05812,2.56
100,-415.08,81.93,88.46,-0.05969,0.64
100,-76.79,89.90,86.78,-0.06126,-1.03
100,810.79,95.40,84.43,-0.06283,-1.14
100,810.79,92.75,84.86,-0.06440,-1.14
100,503.98,90.28,87.87,-0.06754,-1.14
100,-68.57,86.53,89.64,-0.07226,0.27
100,16.41,92.25,89.28,-0.07697,-0.88
100,685.78,107.96,88.55,-0.07854,-5.00
100,768.83,98.56,90.24,-0.08325,-2.61
100,-248.73,93.28,94.10,-0.08796,-5.61
100,-486.52,106.29,95.68,-0.09268,-3.78
100,-23.74,103.62,95.22,-0.09111,-2.10
100,184.30,94.77,94.73,-0.08954,-2.45
100,310.63,95.82,94.44,-0.08954,0.99
100,183.31,86.71,93.98,-0.08482,2.70
100,-5.29,77.69,92.96,-0.08168,4.24
100,-94.79,73.69,91.29,-0.07854,5.92
100,18.03,93.15,88.98,-0.07540,0.31
100,810.79,98.06,86.74,-0.07069,-0.85
100,810.79,91.71,88.30,-0.06912,1.29
100,57.57,82.03,91.02,-0.06912,3.46
100,-293.94,77.04,90.71,-0.06754,2.52
100,-107.41,83.70,88.70,-0.06754,2.52
100,712.46,94.08,85.84,-0.06754,-0.04
100,810.79,97.22,85.80,-0.06440,-1.67
100,476.34,82.90,88.74,-0.06440,1.36
100,-302.85,79.92,90.15,-0.06440,1.85
100,-138.77,88.84,88.86,-0.06440,0.70
100,793.18,98.60,86.58,-0.06754,-1.59
100,810.79,95.83,87.46,-0.06912,-3.25
100,345.91,97.45,90.70,-0.07226,-0.47
100,10.73,88.90,91.66,-0.07854,-1.14
100,219.63,91.67,90.87,-0.08011,-5.52
100,810.79,109.45,90.59,-0.08168,-1.75
100,225.69,96.44,93.98,-0.08954,-1.49
100,-801.52,122.66,96.64,-0.09425,-10.02
100,339.65,107.36,96.01,-0.09425,-4.22
100,680.09,91.09,96.23,-0.09268,-2.30
100,-8.69,82.20,97.60,-0.09268,1.09
100,-579.30,87.87,97.61,-0.09111,2.56
100,-381.19,86.55,95.61,-0.08639,3.75
100,133.21,80.69,92.58,-0.08168,4.23
100,653.35,77.99,89.42,-0.07697,4.23
100,573.12,85.29,88.76,-0.07540,2.23
100,564.81,94.61,88.80,-0.07383,-0.38
100,570.77,88.74,89.20,-0.07069,0.79
100,349.49,78.43,89.16,-0.06754,2.88
100,312.75,79.44,87.96,-0.06754,2.95
100,730.95,88.27,86.26,-0.06597,1.30
100,572.87,88.21,87.15,-0.06597,-0.05
100,530.98,89.68,87.42,-0.06754,0.51
100,639.81,87.73,87.21,-0.06597,0.57
100,624.48,87.09,87.25,-0.06754,0.09
100,654.76,89.24,87.38,-0.06754,-0.80
100,615.03,92.64,88.15,-0.06912,-1.08
100,616.50,94.69,88.70,-0.07226,-1.79
100,650.40,95.05,89.41,-0.07383,-1.90
100,503.82,94.69,90.51,-0.07697,-1.87
100,614.04,94.93,90.69,-0.07854,-0.77
100,457.57,91.43,91.64,-0.08482,-3.91
100,419.62,102.24,92.03,-0.08796,-4.81
100,691.48,106.81,92.63,-0.08954,-4.81
100,408.43,102.35,95.14,-0.08954,-4.32
100,-86.57,90.62,97.03,-0.08954,-1.25
100,-554.02,77.93,97.03,-0.08954,2.97
100,-524.41,77.30,94.32,-0.08639,4.25
100,319.34,82.92,89.82,-0.07854,3.76
100,810.79,86.44,87.05,-0.07226,2.58
100,522.92,83.24,88.69,-0.07383,2.23
100,-215.53,82.46,90.18,-0.07383,1.17
100,-135.91,87.42,89.31,-0.07069,0.41
100,514.48,90.89,87.24,-0.06912,1.95
100,684.26,84.04,86.67,-0.06597,0.38
100,507.02,87.27,87.17,-0.06597,2.64
100,499.32,81.43,86.56,-0.06597,0.60
100,587.79,89.74,86.40,-0.06597,0.47
100,634.15,91.40,86.71,-0.06597,-0.50
100,613.33,87.56,87.28,-0.06597,0.40
100,610.79,87.08,87.30,-0.06754,-0.05
100,621.66,89.75,87.31,-0.06912,-0.96
100,652.49,93.23,87.64,-0.06912,-0.96
100,602.84,97.09,88.60,-0.07226,-2.27
100,639.21,98.25,89.60,-0.07383,-2.84
100,543.28,97.68,90.94,-0.07697,-2.95
100,481.87,88.27,91.44,-0.08325,-0.19
100,582.64,98.53,91.29,-0.08639,-3.13
100,711.87,107.46,92.48,-0.08954,-4.84
100,251.68,105.57,95.69,-0.09268,-4.97
100,-127.22,103.14,97.87,-0.09425,-1.39
100,-354.78,92.10,98.26,-0.09268,1.55
100,-554.67,83.32,97.34,-0.08954,2.96
100,-429.51,81.76,94.96,-0.08639,3.32
100,102.43,83.18,91.73,-0.08011,3.82
100,734.62,81.45,88.54,-0.07697,1.85
100,603.91,86.48,88.85,-0.07540,1.81
100,200.94,91.76,89.71,-0.07383,-0.32
100,449.45,85.17,89.07,-0.07069,1.73
100,622.67,83.24,88.04,-0.06754,2.33
100,443.41,82.54,88.02,-0.06754,2.23
100,302.47,83.66,87.83,-0.06754,2.23
100,398.60,88.22,87.09,-0.06754,0.97
100,708.86,92.36,86.45,-0.06754,-0.36
100,567.54,91.69,87.64,-0.06597,-0.64
100,511.47,83.71,87.92,-0.06754,1.34
100,492.13,86.48,87.55,-0.06754,0.56
100,760.81,95.25,87.10,-0.06912,-1.29
100,682.82,101.90,88.91,-0.07069,-3.36
100,449.59,99.46,91.00,-0.07540,-1.86
100,576.23,92.69,91.06,-0.07697,-2.32
100,647.88,95.08,91.26,-0.08011,-3.28
100,600.35,100.59,92.46,-0.08796,-0.65
100,59.85,91.54,94.32,-0.09111,-3.46
100,-90.16,99.56,95.21,-0.09268,-3.83
100,212.49,104.01,95.19,-0.09268,-2.71
100,399.02,98.66,95.10,-0.08954,0.41
100,96.95,88.20,95.06,-0.08796,0.15
100,-142.61,77.79,94.92,-0.08482,4.37
100,-624.15,77.43,94.28,-0.08325,6.12
100,-347.10,74.23,91.20,-0.07854,6.12
100,261.77,79.15,87.23,-0.07383,4.54
100,810.79,95.41,84.44,-0.06912,-0.34
100,810.79,89.36,86.08,-0.06754,0.79
100,-21.43,80.54,89.13,-0.06754,1.85
100,-466.45,76.27,89.18,-0.06597,3.66
100,-279.64,83.92,87.27,-0.06440,2.40
100,706.85,95.53,84.29,-0.06440,-0.54
100,810.79,97.59,84.17,-0.06283,-1.91
100,810.79,93.02,87.18,-0.06283,1.94
100,-225.71,79.05,90.08,-0.06283,2.61
100,-542.52,78.88,89.56,-0.06440,0.29
100,176.56,91.88,86.97,-0.06754,-1.70
100,810.79,99.36,85.08,-0.06754,-4.39
100,810.79,103.93,87.51,-0.06912,-3.21
100,255.88,96.69,91.88,-0.07540,0.31
100,-715.88,83.65,93.94,-0.08168,-2.13
100,-77.25,98.99,91.82,-0.08482,-1.70
100,810.79,95.80,89.71,-0.08639,-4.04
100,569.15,101.16,91.70,-0.08796,-4.04
100,-88.26,105.50,95.01,-0.08954,-4.97
100,-390.31,88.80,96.86,-0.09111,-0.11
100,-592.20,82.37,96.20,-0.08954,1.47
100,-258.50,85.08,93.42,-0.08482,2.05
100,432.85,84.71,90.15,-0.08011,2.74
100,777.23,84.94,88.59,-0.07383,2.19
100,214.16,78.21,89.64,-0.07540,3.84
100,-54.38,84.37,89.36,-0.07383,1.94
100,124.80,86.65,88.27,-0.07069,-0.40
100,720.91,92.95,86.58,-0.06754,0.87
100,610.92,87.42,87.48,-0.06440,2.35
100,198.79,79.85,88.08,-0.06440,2.70
100,142.72,80.25,87.22,-0.06440,1.11
100,649.08,88.26,85.45,-0.06440,-0.50
100,807.51,93.87,86.05,-0.06440,-0.27
100,350.53,90.27,88.03,-0.06440,2.07
100,135.27,80.39,87.83,-0.06440,0.12
100,514.44,96.17,86.55,-0.06597,-1.23
100,810.79,94.15,86.78,-0.06754,-1.23
100,368.55,94.97,89.25,-0.07069,-2.31
100,393.49,89.70,89.69,-0.07383,-0.46
100,634.00,103.91,89.20,-0.07540,-4.61
100,652.79,97.87,90.99,-0.07854,-2.29
100,-70.08,83.15,93.65,-0.08796,0.92
100,-623.05,95.63,94.42,-0.09268,-2.26
100,152.78,112.08,92.75,-0.09268,-5.46
100,810.79,106.20,92.50,-0.08954,-4.57
100,39.30,88.82,96.25,-0.08796,-1.24
100,-810.79,89.95,98.01,-0.09111,0.72
100,-69.51,89.95,94.27,-0.08482,5.90
100,722.75,72.79,90.01,-0.07854,4.81
100,411.23,74.58,89.21,-0.07540,3.65
100,104.53,82.24,89.04,-0.07540,1.10
100,306.53,90.97,88.32,-0.07383,-0.43
100,728.80,93.88,87.64,-0.06912,1.20
100,432.85,85.23,88.44,-0.06754,3.03
100,241.87,77.36,87.73,-0.06597,2.49
100,488.77,84.41,86.16,-0.06597,2.49
100,703.73,90.17,85.37,-0.06597,0.39
100,572.74,94.20,86.41,-0.06597,-1.16
100,659.92,86.79,86.99,-0.06597,0.59
100,555.56,82.47,87.18,-0.06597,1.45
100,550.73,89.16,86.76,-0.06754,0.10
100,661.55,95.20,86.94,-0.06754,-1.17
100,671.88,95.26,87.99,-0.06912,-1.68
100,512.93,93.71,89.26,-0.07226,-1.78
100,656.68,95.72,89.45,-0.07383,-2.32
100,587.02,96.47,90.53,-0.07697,-3.10
100,545.38,98.89,91.50,-0.08325,-1.11
100,437.87,92.29,92.34,-0.08796,-6.61
100,661.16,110.34,92.93,-0.08954,-5.04
100,542.05,107.63,95.41,-0.09111,-4.38
100,-95.27,100.54,98.28,-0.09425,-1.84
100,-596.59,92.75,99.32,-0.09425,1.91
100,-540.37,82.92,97.17,-0.09111,3.86
100,-8.88,79.01,93.24,-0.08482,2.78
100,810.79,85.06,89.56,-0.07697,2.78
100,612.94,85.03,89.99,-0.07697,2.88
100,-102.17,78.56,91.21,-0.07697,3.75
100,-329.94,89.66,90.38,-0.07540,0.82
100,222.81,91.50,88.46,-0.06912,0.67
100,810.79,85.41,86.67,-0.06597,1.39
100,416.77,78.24,87.97,-0.06440,2.94
100,68.35,81.40,87.90,-0.06440,2.52
100,306.99,91.16,86.62,-0.06440,0.43
100,810.79,94.35,85.47,-0.06440,-0.68
100,635.90,88.81,87.33,-0.06440,-0.08
100,227.95,87.37,88.58,-0.06597,1.50
100,418.31,84.23,87.57,-0.06754,-0.45
100,767.53,91.55,86.63,-0.06912,-1.80
100,575.71,96.98,88.34,-0.07069,-2.37
100,575.25,96.96,89.30,-0.07383,-2.84
100,658.94,97.19,90.05,-0.07540,-2.95
100,502.61,97.60,91.46,-0.08011,-0.68
100,376.04,90.23,91.85,-0.08639,-4.43
100,683.45,103.14,92.04,-0.08796,-4.43
100,567.00,109.36,94.53,-0.09111,-5.48
100,73.62,106.14,97.54,-0.09425,-4.18
100,-304.94,89.10,99.00,-0.09268,-0.50
100,-639.11,78.34,98.68,-0.09268,3.35
100,-398.45,81.81,95.25,-0.08796,3.29
100,519.99,86.83,90.71,-0.08011,2.63
100,810.79,85.65,88.90,-0.07540,2.38
100,151.36,77.63,91.14,-0.07697,3.88
100,-451.73,87.09,91.62,-0.07697,1.15
100,-119.70,91.85,90.11,-0.07226,0.67
100,671.71,89.36,87.63,-0.06912,1.40
100,788.75,84.34,87.39,-0.06597,2.27
100,272.39,81.14,88.40,-0.06597,3.22
100,203.23,79.68,87.57,-0.06597,0.82
100,627.12,89.09,85.91,-0.06597,-0.89
100,810.79,95.35,86.00,-0.06597,-1.22
100,463.97,93.37,88.52,-0.06597,1.50
100,101.73,82.02,89.08,-0.06754,0.38
100,351.06,86.65,87.85,-0.06912,0.38
100,810.79,97.24,86.92,-0.07069,-1.62
100,788.43,102.06,89.38,-0.07226,-3.32
100,155.10,98.59,92.49,-0.07697,-0.52
100,-161.95,87.69,92.87,-0.08011,-0.00
100,-35.40,96.19,91.84,-0.08482,-1.42
100,535.63,106.72,90.68,-0.08796,-4.38
100,766.05,111.99,92.29,-0.08796,-6.71
100,75.35,96.57,96.57,-0.09268,-3.12
100,-810.79,84.81,98.95,-0.09425,0.01
100,-441.79,82.55,95.51,-0.09111,2.23
100,798.97,91.45,90.34,-0.08011,0.75
100,810.79,91.23,89.25,-0.07697,1.64
100,280.99,84.25,92.45,-0.07697,5.55
100,-810.79,70.64,93.97,-0.07854,4.41
100,-306.57,77.19,89.48,-0.07540,-0.62
100,810.79,98.72,83.99,-0.06754,-2.74
100,810.79,103.39,83.40,-0.06283,1.16
100,810.79,82.02,86.13,-0.06126,4.36
100,-18.88,68.19,90.17,-0.05812,4.36
100,-793.99,78.61,90.77,-0.05812,3.29
100,637.77,95.94,86.23,-0.05969,0.18
100,810.79,93.99,84.24,-0.05969,-0.43
100,810.79,88.93,85.93,-0.05969,-0.20
100,326.08,82.40,89.50,-0.06126,1.76
100,-414.99,88.98,90.86,-0.06440,0.38
100,-214.12,96.43,89.99,-0.06912,-1.13
100,651.68,97.77,87.99,-0.07226,-2.02
100,810.79,102.61,88.68,-0.07383,-4.34
100,274.63,91.25,92.18,-0.07697,-1.23
100,-384.38,87.13,93.90,-0.08325,-0.26
100,-467.87,91.15,93.43,-0.08796,-1.88
100,-112.55,98.70,92.36,-0.08954,-4.36
100,554.99,106.04,91.43,-0.09268,-6.09
100,787.22,109.29,92.93,-0.08796,-2.58
100,-130.84,94.76,96.89,-0.08954,2.09
100,-810.79,78.24,97.97,-0.09111,1.67
100,-154.14,84.64,92.98,-0.08325,3.65
100,810.79,83.52,87.72,-0.07540,3.65
100,810.79,84.46,87.33,-0.07383,2.49
100,164.78,80.94,90.28,-0.07540,3.03
100,-623.27,80.40,91.43,-0.07540,0.94
100,-70.46,89.37,89.10,-0.07226,-0.26
100,810.79,94.38,86.29,-0.06754,0.80
100,810.79,83.93,87.33,-0.06597,1.00
100,108.56,77.85,89.03,-0.06440,3.34
100,-44.15,85.46,88.14,-0.06440,1.65
100,520.65,94.66,86.12,-0.06440,-0.45
100,810.79,93.79,85.73,-0.06440,-0.88
100,463.14,82.18,88.27,-0.06440,1.49
100,-117.25,83.62,89.26,-0.06597,1.09
100,54.45,87.87,88.12,-0.06754,-1.31
100,759.00,96.19,86.25,-0.06912,-2.53
100,810.79,98.71,87.53,-0.06912,-4.40
100,371.19,102.13,90.64,-0.07383,0.46
100,188.35,85.43,91.38,-0.07854,-1.88
100,367.24,92.70,90.57,-0.08168,0.24
100,571.03,90.61,90.06,-0.08482,0.24
100,631.58,101.76,90.93,-0.08796,-3.54
100,477.99,106.40,93.16,-0.08796,-4.77
100,107.81,92.52,94.64,-0.08954,-1.49
100,-89.98,91.04,94.81,-0.08796,1.09
100,-246.12,86.62,94.36,-0.08482,2.09
100,-228.63,84.29,93.04,-0.08168,4.05
100,-143.43,77.23,91.00,-0.07854,4.57
100,133.57,79.82,88.40,-0.07540,4.08
100,685.95,95.14,85.79,-0.07226,-0.48
100,810.79,90.93,86.24,-0.06912,0.38
100,167.36,81.15,89.09,-0.06912,1.79
100,-308.46,77.01,89.38,-0.06754,3.36
100,-270.25,80.49,87.77,-0.06597,2.48
100,362.77,85.02,84.97,-0.06597,-0.60
100,810.79,93.94,83.40,-0.06283,-1.84
100,810.79,95.91,85.63,-0.06126,1.94
100,24.05,80.31,88.49,-0.06126,2.33
100,-301.78,78.63,88.26,-0.06126,0.75
100,140.22,89.19,86.43,-0.06440,0.75
100,810.79,97.81,84.61,-0.06597,-1.41
100,810.79,101.57,86.47,-0.06754,-3.56
100,262.96,94.37,90.42,-0.07226,-2.42
100,-211.10,93.47,92.20,-0.07854,-0.33
100,-238.78,89.65,92.01,-0.08011,-2.70
100,203.70,98.85,91.23,-0.08639,-2.15
100,629.77,98.38,90.83,-0.08796,-5.53
100,590.76,105.75,93.06,-0.08796,-5.22
100,158.40,92.84,95.87,-0.09111,-1.99
100,-398.58,83.73,97.06,-0.08954,0.89
100,-584.64,85.18,95.90,-0.08796,1.71
100,-64.61,81.72,92.75,-0.08325,3.66
100,603.65,85.01,89.35,-0.07697,2.37
100,750.68,84.77,88.58,-0.07540,3.35
100,156.43,79.71,89.77,-0.07540,2.30
100,-58.74,83.25,89.33,-0.07383,-0.06
100,270.54,92.98,88.00,-0.06912,0.92
100,808.81,88.84,86.74,-0.06597,1.78
100,409.39,82.29,87.84,-0.06440,1.78
100,246.04,79.02,87.42,-0.06440,2.90
100,582.72,87.84,85.92,-0.06440,0.97
100,810.79,92.48,85.90,-0.06440,-0.02
100,390.84,89.07,87.82,-0.06440,0.15
100,396.42,87.38,87.70,-0.06440,1.66
100,596.66,83.54,86.63,-0.06597,0.03
100,608.39,89.65,86.95,-0.06754,-1.46
100,673.76,95.77,87.76,-0.06912,-1.56
100,557.06,97.12,88.98,-0.07226,-2.81
100,634.35,97.05,89.75,-0.07540,-2.64
100,554.22,97.65,90.93,-0.07854,-2.91
100,488.92,83.60,91.66,-0.08482,1.33
100,269.68,100.38,91.76,-0.08796,-3.67
100,639.52,105.06,91.79,-0.08954,-4.60
100,547.83,103.99,93.85,-0.08796,-3.12
100,67.36,97.16,96.27,-0.09111,-0.63
100,-250.15,89.48,96.92,-0.09111,1.04
100,-342.45,86.33,96.07,-0.08796,3.30
100,-316.52,81.16,94.47,-0.08482,3.30
100,-113.86,81.18,92.17,-0.08168,3.50
100,394.54,84.12,89.36,-0.07854,2.90
100,810.79,92.37,87.98,-0.07540,0.27
100,333.02,91.01,90.22,-0.07540,0.18
100,78.12,88.26,90.78,-0.07226,0.90
100,209.30,86.44,89.81,-0.06912,2.60
100,561.78,81.68,87.76,-0.06912,2.38
100,651.71,82.69,86.97,-0.06754,0.02
100,656.16,91.55,87.41,-0.06754,0.30
100,585.74,84.01,88.01,-0.06754,1.42
100,443.05,84.17,87.93,-0.06754,1.36
100,554.67,92.93,87.18,-0.06754,-0.63
100,773.46,96.34,87.39,-0.06912,-1.54
100,446.17,88.90,89.35,-0.07069,-0.12
100,345.37,87.86,89.49,-0.07383,-2.13
100,561.49,97.04,88.93,-0.07383,-4.84
100,802.13,107.07,89.75,-0.07540,-2.46
100,290.90,96.53,93.06,-0.08168,0.08
100,-464.00,85.02,95.16,-0.09111,0.08
100,-433.92,100.81,94.58,-0.09425,-3.56
100,577.88,110.48,92.70,-0.09425,-4.99
100,810.79,110.07,93.55,-0.09111,-6.15
100,-92.36,91.64,98.05,-0.09111,-1.92
100,-810.79,70.91,99.23,-0.09268,4.15
100,-708.12,77.32,93.85,-0.08482,5.10
100,810.79,81.23,86.18,-0.07383,3.44
100,810.79,83.95,83.94,-0.06912,2.38
100,810.79,83.64,86.42,-0.06912,2.07
100,-244.20,82.66,90.52,-0.07226,1.68
100,-613.21,81.84,90.64,-0.07069,3.01
100,152.12,88.39,87.05,-0.06912,1.01
100,810.79,94.69,84.17,-0.06440,-0.87
100,810.79,84.36,85.37,-0.06283,1.35
100,211.76,81.97,88.38,-0.06126,2.64
100,-213.84,81.22,88.77,-0.06126,2.12
100,18.16,84.71,87.15,-0.06283,-0.94
100,795.02,95.26,84.82,-0.06283,-0.98
100,810.79,93.92,85.36,-0.06283,-0.98
100,373.78,86.06,88.26,-0.06597,0.22
100,-111.17,83.52,89.24,-0.06912,1.07
100,240.22,98.66,88.28,-0.07383,-2.44
100,810.79,109.53,87.77,-0.07540,-5.17
100,627.75,97.46,91.20,-0.08011,-2.92
100,-433.10,93.48,94.96,-0.08954,-0.36
100,-691.73,89.05,94.88,-0.09268,-3.20
100,492.05,101.51,91.49,-0.09268,-5.40
100,810.79,110.59,91.19,-0.08954,-6.25
100,645.76,109.14,95.94,-0.08954,-1.69
100,-810.79,90.30,100.29,-0.09582,4.28
100,-810.79,72.61,98.13,-0.09111,5.79
100,-65.77,85.80,90.21,-0.08011,3.73
100,810.79,91.18,83.61,-0.06912,1.65
100,810.79,89.45,82.96,-0.06754,0.23
100,810.79,86.22,86.52,-0.06912,3.47
100,-74.30,76.14,91.94,-0.07069,2.83
100,-810.79,80.89,92.78,-0.06912,2.07
100,313.87,88.03,87.22,-0.06754,2.07
100,810.79,92.44,83.04,-0.06440,0.24
100,810.79,95.45,83.63,-0.06126,-1.86
100,810.79,81.51,86.72,-0.05812,1.58
100,-219.78,75.62,90.56,-0.05655,3.04
100,-580.98,84.77,90.23,-0.05812,1.86
100,421.62,88.44,86.55,-0.06126,-0.69
100,810.79,94.30,84.55,-0.06126,-1.14
100,810.79,93.19,86.43,-0.06440,-1.17
100,206.34,90.84,90.10,-0.06912,-0.22
100,-280.98,88.34,91.32,-0.07697,-0.77
100,-4.02,92.12,90.43,-0.08011,-5.80
100,810.79,100.92,89.74,-0.08168,-3.13
100,542.04,102.35,92.76,-0.08639,-5.37
100,-312.02,95.17,96.53,-0.09268,-2.41
100,-677.86,98.60,97.32,-0.09425,-3.07
100,151.58,101.52,94.84,-0.09111,-2.78
100,810.79,99.33,93.41,-0.08639,0.33
100,214.82,86.88,95.95,-0.08796,0.32
100,-598.71,87.42,97.33,-0.08796,0.32
100,-523.85,76.36,95.27,-0.08482,4.91
100,-89.42,76.71,91.49,-0.08011,4.80
100,810.79,96.65,87.59,-0.07383,-0.43
100,810.79,94.97,87.49,-0.07226,-0.10
100,417.80,84.91,90.84,-0.07226,0.80
100,-631.31,75.84,92.60,-0.07069,3.38
100,-295.06,79.79,89.51,-0.06754,2.50
100,810.79,86.36,84.97,-0.06597,0.49
100,810.79,91.45,84.34,-0.06283,-1.18
100,810.79,93.63,86.98,-0.06126,2.42
100,-226.93,79.45,90.08,-0.06126,2.43
100,-564.04,79.07,89.60,-0.06283,1.06
100,270.05,98.57,86.69,-0.06440,-1.49
100,810.79,96.96,84.98,-0.06597,-2.05
100,810.79,91.88,87.35,-0.06754,-1.76
100,94.69,92.29,91.04,-0.07383,-0.17
100,-240.21,89.79,92.05,-0.07854,-3.28
100,-17.59,101.14,91.36,-0.08168,-4.03
100,722.58,104.69,90.35,-0.08639,-4.03
100,564.19,99.98,92.61,-0.08796,-3.68
100,-261.69,95.74,95.93,-0.09268,-2.87
100,-654.21,94.15,96.86,-0.09268,-1.75
100,-130.38,93.43,94.74,-0.08796,-0.84
100,406.43,85.88,92.38,-0.08639,1.51
100,778.96,93.06,91.01,-0.08011,-0.81
100,463.89,94.65,92.48,-0.08011,4.28
100,-76.09,75.38,92.82,-0.07854,6.18
100,-563.80,68.05,91.54,-0.07697,1.74
100,22.49,88.56,88.56,-0.07383,-0.50
100,810.79,99.18,85.99,-0.06754,-0.52
100,810.79,92.71,87.45,-0.06597,2.12
100,-59.11,78.70,90.19,-0.06440,3.41
100,-560.08,84.31,89.87,-0.06283,2.46
100,16.97,95.06,87.31,-0.06440,-0.16
100,810.79,92.09,84.86,-0.06440,-0.13
100,810.79,87.45,86.35,-0.06283,1.03
100,138.25,83.92,88.93,-0.06440,0.83
100,12.26,86.94,88.71,-0.06597,0.83
100,472.62,92.18,87.10,-0.06754,-0.22
100,810.79,96.02,86.87,-0.06912,-1.64
100,435.86,97.24,89.39,-0.07069,-2.60
100,371.78,87.31,89.94,-0.07540,0.09
100,673.97,99.09,89.32,-0.07697,-3.42
100,558.22,96.81,90.89,-0.08011,-1.81
100,389.64,105.74,92.71,-0.08796,-5.34
100,580.09,106.77,93.76,-0.08954,-3.83
100,428.65,99.68,95.32,-0.09268,-3.67
100,236.58,98.72,96.33,-0.09268,-2.30
100,212.71,96.66,96.47,-0.08954,0.07
100,37.41,89.49,96.36,-0.08796,1.02
100,-259.58,86.76,96.18,-0.08639,3.81
100,-609.65,79.30,95.22,-0.08482,4.57
100,-306.74,84.64,91.96,-0.08168,3.03
100,629.64,95.81,88.12,-0.07540,-0.27
100,810.79,92.70,87.24,-0.07383,0.34
100,559.79,86.24,90.25,-0.07226,1.78
100,-350.08,82.31,92.38,-0.07069,1.78
100,-517.15,81.23,91.60,-0.06912,2.98
100,-64.60,85.22,88.90,-0.06912,2.27
100,810.79,95.99,85.67,-0.06754,-0.93
100,810.79,93.72,86.07,-0.06440,-0.85
100,414.92,80.24,89.11,-0.06440,1.94
100,-419.62,78.19,90.40,-0.06440,2.68
100,-197.88,91.87,88.92,-0.06597,0.13
100,727.42,93.53,86.41,-0.06912,-1.88
100,810.79,95.78,86.93,-0.06912,-2.98
100,382.22,97.75,90.08,-0.07226,-1.52
100,152.04,92.53,91.17,-0.07697,-2.36
100,452.40,95.62,90.63,-0.07854,-3.12
100,719.60,100.13,90.97,-0.08482,-0.73
100,78.56,91.35,93.24,-0.08954,-4.17
100,-87.33,101.49,94.60,-0.09111,-3.66
100,144.31,94.32,94.85,-0.09111,-1.68
100,118.69,90.56,94.85,-0.08954,-0.86
100,-15.13,92.99,94.77,-0.08796,2.08
100,-18.81,84.55,94.40,-0.08482,2.08
100,-113.25,75.54,93.33,-0.08168,4.47
100,-237.07,76.71,91.51,-0.07854,4.65
100,-6.76,78.87,88.98,-0.07540,4.73
100,650.86,94.51,86.21,-0.07226,-0.09
100,810.79,93.76,86.03,-0.06912,-0.25
100,332.31,82.28,88.91,-0.06754,1.54
100,-378.05,75.51,89.82,-0.06597,3.46
100,-299.63,83.95,88.22,-0.06440,2.19
100,448.78,86.72,85.42,-0.06440,-0.37
100,810.79,92.65,84.14,-0.06283,-1.17
100,784.42,93.29,86.40,-0.06283,0.94
100,19.99,84.12,88.79,-0.06283,1.85
100,-93.24,81.22,88.18,-0.06440,-0.03
100,497.97,90.94,86.34,-0.06754,-1.87
100,810.79,98.54,85.85,-0.06754,-3.25
100,810.79,100.09,88.65,-0.06912,-0.23
100,-206.57,83.69,91.81,-0.07540,0.66
100,-607.10,88.57,91.95,-0.08011,-3.57
100,-3.30,104.93,89.79,-0.08168,-3.57
100,810.79,97.08,88.28,-0.08482,-1.70
100,567.72,103.06,91.16,-0.08639,-5.22
100,-267.12,96.03,95.08,-0.08954,-2.48
100,-745.44,87.99,96.23,-0.09111,-0.18
100,-158.80,85.45,93.08,-0.08639,1.33
100,669.37,86.59,89.56,-0.08011,1.62
100,663.52,86.46,89.50,-0.07697,1.63
100,-126.57,74.72,90.93,-0.07540,4.75
100,-638.89,74.69,90.48,-0.07540,5.95
100,-315.27,74.24,87.31,-0.07069,-0.66
100,810.79,96.77,83.44,-0.06597,-1.62
100,810.79,99.53,83.12,-0.06126,1.32
100,810.79,81.79,85.75,-0.05969,3.43
100,-350.33,72.44,88.79,-0.05812,3.11
100,-499.17,79.43,87.69,-0.05812,1.46
100,553.12,89.76,84.31,-0.05969,-0.41
100,810.79,94.39,83.04,-0.05812,-0.58
100,810.79,82.06,84.96,-0.05812,1.20
100,61.09,83.28,87.96,-0.05969,1.20
100,-218.81,88.13,88.24,-0.06283,0.89
100,185.30,94.52,86.94,-0.06754,-0.84
100,810.79,97.69,85.64,-0.06912,-2.26
100,810.79,104.89,87.62,-0.07069,-5.14
100,194.06,89.50,91.51,-0.07697,-0.83
100,-459.44,88.02,93.15,-0.08168,-0.81
100,-326.07,98.34,92.45,-0.08639,-2.31
100,412.18,107.88,91.27,-0.08954,-4.66
100,810.79,110.37,91.95,-0.09111,-6.30
100,208.67,106.83,96.51,-0.09111,-1.77
100,-810.79,91.01,99.82,-0.09425,0.86
100,-507.72,84.19,96.90,-0.08954,0.68
100,650.53,90.09,92.07,-0.08325,3.61
100,810.79,81.89,90.51,-0.07854,3.34
100,-7.76,79.47,92.28,-0.08011,5.44
100,-597.72,73.95,91.93,-0.07854,0.32
100,90.21,92.61,89.36,-0.07540,-1.11
100,810.79,99.57,87.22,-0.06912,0.83
100,709.63,83.07,88.85,-0.06754,0.83
100,15.66,75.93,90.32,-0.06597,4.03
100,-252.63,81.85,89.34,-0.06597,2.92
100,205.24,93.42,87.03,-0.06597,0.20
100,810.79,94.98,85.43,-0.06597,-0.81
100,810.79,87.84,86.97,-0.06440,-0.00
100,92.12,79.10,89.24,-0.06597,2.27
100,-99.31,87.60,88.82,-0.06597,0.56
100,529.95,98.55,87.06,-0.06912,-1.66
100,810.79,104.00,87.28,-0.07069,-3.91
100,568.56,100.06,90.83,-0.07226,-0.58
100,-153.31,87.15,93.32,-0.08011,0.17
100,-416.23,86.48,93.27,-0.08168,-3.15
100,48.58,102.35,92.07,-0.08639,-1.07
100,653.05,96.40,90.96,-0.08796,-5.25
100,664.97,105.31,92.57,-0.08796,-4.68
100,145.77,104.34,95.67,-0.09111,-1.21
100,-463.94,90.81,97.27,-0.09111,0.99
100,-590.63,83.93,95.95,-0.08954,1.18
100,138.28,87.74,92.58,-0.08325,1.18
100,797.48,84.55,89.57,-0.07854,2.80
100,395.31,81.70,90.14,-0.07540,2.89
100,64.13,74.19,90.04,-0.07540,5.28
100,-165.04,86.44,88.94,-0.07383,1.71
100,332.29,95.25,87.15,-0.07069,-0.22
100,810.79,88.81,86.31,-0.06597,0.61
100,313.89,76.39,88.17,-0.06283,3.15
100,-75.25,81.09,88.02,-0.06283,2.24
100,230.16,89.48,86.48,-0.06283,1.06
100,810.79,95.19,85.00,-0.06283,-0.87
100,699.47,91.98,86.99,-0.06283,0.11
100,193.03,86.49,88.73,-0.06283,1.53
100,285.54,83.02,87.84,-0.06440,-0.11
100,740.06,90.58,86.38,-0.06597,-1.54
100,689.12,96.61,87.71,-0.06912,-1.55
100,399.02,94.34,89.44,-0.07226,-0.82
100,477.94,90.22,89.36,-0.07540,-2.41
100,656.48,96.38,89.57,-0.07697,-3.45
100,581.12,101.44,91.20,-0.08168,-3.45
100,-36.21,87.08,92.89,-0.08796,0.38
100,-471.78,85.48,93.33,-0.08954,-2.16
100,-189.67,108.83,92.96,-0.09111,-4.67
100,587.74,99.84,92.36,-0.08796,-3.09
100,578.03,88.44,93.30,-0.08325,-0.93
100,-37.76,77.06,94.39,-0.08482,3.03
100,-594.56,68.88,93.75,-0.08168,6.60
100,-419.15,76.24,90.11,-0.07697,5.51
100,734.92,85.46,85.07,-0.07069,3.45
100,810.79,92.24,83.81,-0.06754,0.47
100,632.35,88.00,87.10,-0.06912,1.68
100,-416.36,81.65,90.04,-0.06912,2.58
100,-484.68,80.72,88.95,-0.06754,2.42
100,252.14,83.94,85.71,-0.06597,-0.08
100,810.79,92.48,83.33,-0.06283,-1.92
100,810.79,96.89,85.09,-0.06126,1.09
100,179.57,83.61,88.52,-0.06126,2.32
100,-444.22,78.09,89.23,-0.06126,1.06
100,-140.01,87.07,87.72,-0.06283,1.06
100,810.79,97.13,85.44,-0.06440,-1.10
100,810.79,95.55,86.25,-0.06597,-1.41
100,318.15,91.34,89.32,-0.06912,-0.42
100,-41.03,91.50,90.19,-0.07540,-0.76
100,289.69,101.17,89.30,-0.07697,-3.10
100,810.79,108.45,89.14,-0.07854,-5.47
100,432.54,92.63,92.81,-0.08639,-1.70
100,-757.16,92.06,96.46,-0.09268,-2.16
100,-454.73,98.47,94.81,-0.09425,-2.35
100,810.79,107.78,91.42,-0.08796,-4.70
100,810.79,100.06,91.94,-0.08325,-3.21
100,250.81,96.18,96.31,-0.08954,2.24
100,-810.79,80.27,99.22,-0.08954,5.11
100,-810.79,73.07,95.34,-0.08482,5.78
100,726.51,75.72,87.81,-0.07540,3.51
100,810.79,84.40,84.31,-0.06912,0.04
100,810.79,93.47,85.88,-0.07069,1.48
100,179.12,85.16,90.37,-0.07069,2.58
100,-810.79,78.79,92.12,-0.06912,2.58
100,-18.14,82.40,88.00,-0.06754,2.52
100,810.79,93.56,83.85,-0.06440,0.07
100,810.79,91.78,84.60,-0.06283,-0.73
100,787.18,89.63,88.02,-0.06126,1.88
100,-395.04,80.51,90.82,-0.06126,2.44
100,-518.34,89.10,89.76,-0.06283,1.03
100,525.64,99.38,86.39,-0.06440,-1.81
100,810.79,96.34,85.25,-0.06597,-1.88
100,810.79,90.13,87.94,-0.06754,-1.31
100,-43.49,85.59,91.47,-0.07226,0.26
100,-386.96,94.97,92.04,-0.07854,-1.57
100,71.19,97.56,90.98,-0.08168,-5.46
100,810.79,108.15,89.92,-0.08325,-1.47
100,615.90,93.26,92.31,-0.08639,-3.85
100,-412.81,97.72,95.93,-0.09111,-1.64
100,-623.92,95.42,96.40,-0.09268,-1.37
100,34.73,94.86,94.09,-0.08954,-1.65
100,771.27,96.09,91.99,-0.08482,0.14
100,369.75,89.50,93.33,-0.08325,0.14
100,-520.55,71.86,94.16,-0.08325,5.01
100,-563.45,73.25,91.40,-0.07854,5.14
100,474.20,78.92,86.35,-0.07226,4.64
100,810.79,80.05,83.94,-0.06912,0.42
100,584.83,90.91,86.44,-0.06912,0.10
100,42.51,80.35,88.54,-0.06754,2.39
100,-85.22,78.22,87.83,-0.06597,3.06
100,179.96,86.47,85.83,-0.06597,1.53
100,810.79,94.70,83.81,-0.06283,-0.66
100,802.23,90.17,85.59,-0.06283,-0.19
100,146.56,78.93,87.79,-0.06283,2.30
100,40.93,85.10,87.15,-0.06283,0.94
100,581.05,89.01,85.29,-0.06440,-0.65
100,807.52,92.78,85.42,-0.06440,-1.50
100,444.16,93.87,87.51,-0.06597,-0.00
100,556.70,87.95,87.49,-0.06912,-1.15
100,636.72,91.66,87.58,-0.07069,-3.24
100,695.70,100.59,88.63,-0.07383,-3.62
100,498.54,101.40,90.77,-0.07854,-3.62
100,157.77,87.82,92.00,-0.08639,-0.29
100,421.46,106.43,92.20,-0.08796,-5.85
100,804.93,110.95,93.31,-0.09111,-5.75
100,153.38,106.29,97.16,-0.09268,-5.48
100,-424.58,103.64,99.76,-0.09425,-1.44
100,-607.15,92.26,99.39,-0.09425,3.01
100,-431.86,79.50,96.24,-0.08954,3.73
100,212.35,87.10,92.11,-0.08325,2.52
100,810.79,86.83,89.17,-0.07697,2.33
100,418.17,79.86,90.81,-0.07697,3.31
100,-300.72,87.58,91.82,-0.07697,0.91
100,-167.54,90.41,90.87,-0.07383,0.89
100,444.96,88.48,88.71,-0.07069,1.84
100,754.32,83.50,87.67,-0.06754,1.16
100,405.78,85.42,88.29,-0.06754,3.15
100,490.36,80.44,87.36,-0.06754,0.45
100,691.91,89.05,86.44,-0.06754,-0.62
100,652.32,93.93,87.28,-0.06754,-0.03
100,514.93,89.62,88.17,-0.06754,-0.03
100,481.85,82.82,87.92,-0.06754,1.49
100,588.36,90.62,87.59,-0.06912,-0.48
100,728.56,98.20,88.25,-0.07069,-2.02
100,523.72,96.36,89.97,-0.07383,-2.15
100,567.40,94.46,90.35,-0.07540,-1.52
100,570.20,93.04,90.74,-0.07854,-3.85
100,713.51,101.74,91.57,-0.08168,-3.05
100,349.06,102.83,93.83,-0.08954,-4.56
100,190.30,101.10,95.38,-0.09268,-3.78
100,231.42,104.04,95.94,-0.09582,-4.71
100,488.45,100.31,96.03,-0.09425,-3.37
100,471.61,86.25,96.29,-0.09111,0.53
100,88.76,84.79,96.20,-0.08796,1.15
100,-157.04,89.08,95.73,-0.08639,4.63
100,-202.10,78.27,94.54,-0.08325,5.91
100,-303.33,72.06,92.50,-0.08168,2.89
100,-29.31,84.49,89.75,-0.07697,0.02
100,810.79,95.99,86.93,-0.07383,-0.35
100,810.79,93.12,87.51,-0.06912,-0.35
100,179.02,82.20,90.26,-0.06912,1.48
100,-427.77,76.07,90.62,-0.06754,3.45
100,-327.24,82.33,88.90,-0.06754,2.80
100,662.42,95.85,86.04,-0.06754,-0.45
100,810.79,93.96,85.86,-0.06597,-1.60
100,644.91,92.68,88.34,-0.06440,1.27
100,-89.23,82.79,90.02,-0.06597,2.50
100,-181.78,79.66,88.99,-0.06597,0.08
100,535.95,100.02,86.85,-0.06912,-2.03
100,810.79,101.63,86.90,-0.06912,-3.63
100,593.57,91.15,90.36,-0.07226,-1.50
100,-213.65,90.99,92.88,-0.07854,-1.51
100,-146.88,102.41,92.61,-0.08168,-3.64
100,601.91,103.51,91.43,-0.08482,-1.12
100,659.42,91.32,92.52,-0.08796,-4.26
100,-179.91,100.70,95.45,-0.09268,-2.51
100,-497.66,99.41,96.95,-0.09268,-0.89
100,-435.46,92.46,96.59,-0.09268,0.22
100,-362.19,88.72,95.62,-0.08954,0.22
100,-83.88,93.83,94.18,-0.08482,-0.76
100,269.04,83.58,92.28,-0.08168,2.59
100,423.95,76.82,90.20,-0.07697,3.93
100,507.90,75.11,88.16,-0.07383,4.99
100,480.66,76.71,86.81,-0.07069,1.10
100,692.48,90.05,86.21,-0.06912,-0.86
100,631.85,96.12,87.54,-0.06597,1.53
100,327.17,83.96,88.20,-0.06597,3.21
100,121.89,76.00,87.40,-0.06597,2.42
100,459.04,91.94,85.57,-0.06597,0.38
100,810.79,97.67,85.23,-0.06440,-1.82
100,499.45,83.17,87.89,-0.06440,1.46
100,-27.72,80.04,88.77,-0.06597,1.85
100,116.47,90.56,87.42,-0.06597,0.09
100,810.79,92.22,85.58,-0.06597,-1.37
100,793.87,93.66,86.79,-0.06754,-1.74
100,331.13,93.84,89.03,-0.06912,0.52
100,429.95,86.41,88.86,-0.07226,-1.84
100,696.16,94.51,88.19,-0.07383,-1.84
100,704.06,104.34,89.57,-0.07697,-4.06
100,227.37,93.77,92.28,-0.08639,-1.47
100,-336.48,90.38,93.98,-0.08954,-1.31
100,-289.06,102.08,94.17,-0.09268,-3.74
100,357.68,109.61,93.66,-0.09111,-5.29
100,721.38,106.54,94.31,-0.08796,-2.98
100,191.50,95.72,96.52,-0.09111,1.84
100,-530.21,79.97,97.07,-0.08796,3.67
100,-542.99,77.42,94.50,-0.08482,5.39
100,207.18,76.81,89.87,-0.07697,4.70
100,810.79,94.31,86.43,-0.07226,0.01
100,802.82,92.57,88.14,-0.07383,-0.03
100,-30.96,86.93,91.20,-0.07383,0.35
100,-313.12,80.28,91.29,-0.07226,2.54
100,-142.23,82.28,89.35,-0.07069,1.82
100,534.13,86.66,86.39,-0.06754,0.02
100,810.79,91.69,85.54,-0.06440,-0.97
100,496.64,92.96,87.85,-0.06440,2.92
100,259.49,78.44,88.39,-0.06440,2.92
100,237.56,80.83,87.35,-0.06440,2.12
100,755.35,93.99,85.61,-0.06597,-0.50
100,810.79,96.50,86.50,-0.06597,-1.30
100,270.74,89.39,89.29,-0.06912,-0.47
100,39.77,85.90,89.65,-0.07226,0.28
100,234.94,88.57,88.74,-0.07383,-2.33
100,799.07,98.96,87.89,-0.07540,-5.15
100,676.22,107.86,90.70,-0.07854,-0.92
100,-359.50,90.40,94.35,-0.08796,-1.47
100,-742.88,89.71,94.72,-0.09268,-1.05
100,220.11,94.23,91.46,-0.09111,-5.16
100,810.79,109.50,90.19,-0.08639,-5.70
100,810.79,86.76,93.89,-0.08482,-0.58
100,-810.79,69.40,98.77,-0.09111,4.43
100,-810.79,68.91,97.05,-0.08796,6.93
100,-338.88,75.21,89.10,-0.07697,3.12
100,810.79,87.14,81.16,-0.06597,-0.28
100,810.79,93.97,79.32,-0.06283,-0.51
100,810.79,89.35,82.14,-0.06283,-0.51
100,810.79,77.39,87.39,-0.06283,2.29
100,-810.79,74.46,91.90,-0.06283,3.82
100,-573.39,85.27,88.80,-0.06440,2.31
100,810.79,98.03,82.95,-0.06283,-0.77
100,810.79,99.30,81.64,-0.05969,-2.42
100,810.79,85.36,83.97,-0.05655,-0.04
100,810.79,83.95,88.11,-0.05655,3.00
100,-558.75,78.64,91.76,-0.05812,2.25
100,-405.85,83.64,89.76,-0.06126,-0.65
100,810.79,96.26,85.68,-0.06440,-1.53
100,810.79,97.59,85.56,-0.06597,-1.95
100,810.79,93.72,88.88,-0.06912,-1.13
100,-212.15,83.33,92.63,-0.07697,1.36
100,-613.27,101.94,92.61,-0.08168,-3.36
100,568.93,101.36,89.93,-0.08168,-2.34
100,810.79,95.36,90.33,-0.08482,-5.69
100,-6.89,105.60,94.33,-0.08954,-2.95
100,-527.57,99.43,97.09,-0.09268,0.37
100,-535.20,86.46,96.77,-0.09268,0.37
100,-329.80,88.64,94.91,-0.08796,0.17
100,146.95,90.33,92.65,-0.08482,0.76
100,649.04,85.75,90.59,-0.08011,1.87
100,377.76,80.32,90.63,-0.07697,3.01
100,-33.77,72.24,90.15,-0.07540,5.57
100,-152.50,80.80,88.86,-0.07226,3.50
100,208.02,83.35,86.86,-0.07069,-0.83
100,810.79,95.41,85.11,-0.06440,0.26
100,728.01,90.14,86.81,-0.06283,2.28
100,-26.80,79.06,88.48,-0.06126,3.63
100,-288.42,75.88,87.77,-0.06126,1.90
100,173.46,85.69,85.77,-0.06283,-0.94
100,810.79,96.87,84.13,-0.06126,-0.70
100,810.79,84.51,86.09,-0.06126,0.46
100,35.23,82.23,88.54,-0.06283,1.41
100,-80.17,91.88,88.14,-0.06440,-0.39
100,552.39,93.34,86.54,-0.06754,-1.74
100,810.79,94.78,86.54,-0.06912,-3.14
100,416.35,98.37,89.15,-0.07069,-3.14
100,403.45,91.21,89.97,-0.07540,-0.95
100,635.92,98.35,89.66,-0.07697,-3.25
100,563.98,94.60,90.90,-0.08168,-1.50
100,336.13,103.42,92.48,-0.08796,-4.60
100,519.88,105.44,93.31,-0.08954,-4.73
100,518.18,99.49,94.51,-0.08954,-3.56
100,96.58,89.29,95.74,-0.09111,-0.80
100,-98.95,91.20,95.65,-0.08954,2.29
100,-186.32,84.32,94.81,-0.08482,2.40
100,-182.05,83.56,93.39,-0.08325,4.26
100,-60.04,78.78,91.30,-0.07854,4.37
100,248.47,78.17,88.69,-0.07540,1.84
100,810.79,87.41,86.67,-0.07226,-0.11
100,521.80,93.71,88.56,-0.07226,0.05
100,214.71,79.60,89.59,-0.06912,2.53
100,94.79,78.73,88.66,-0.06754,3.09
100,371.79,81.80,86.53,-0.06597,0.81
100,789.56,89.75,84.89,-0.06440,-1.19
100,583.76,95.14,86.34,-0.06440,-1.19
100,531.66,83.22,87.19,-0.06440,1.67
100,469.95,80.72,86.79,-0.06440,1.87
100,601.30,89.92,85.93,-0.06597,0.13
100,803.63,97.06,86.22,-0.06597,-1.58
100,483.03,94.40,88.49,-0.06754,-1.56
100,409.60,87.03,88.91,-0.07069,-0.02
100,762.40,98.44,88.28,-0.07226,-3.12
100,638.55,101.03,90.26,-0.07540,-2.85
100,249.21,97.25,92.47,-0.08011,-0.22
100,39.17,87.72,92.88,-0.08639,-1.69
100,155.34,94.08,92.41,-0.08954,-2.55
100,424.12,100.27,92.35,-0.09111,-5.43
100,752.30,108.63,93.21,-0.08796,-2.96
100,160.82,98.33,95.94,-0.08796,0.66
100,-630.06,83.32,96.98,-0.08954,2.52
100,-446.09,78.34,94.09,-0.08482,4.61
100,372.88,81.89,89.50,-0.07697,3.78
100,810.79,81.05,86.88,-0.07226,4.12
100,258.87,77.61,88.47,-0.07383,4.12
100,-248.19,82.71,88.85,-0.07383,2.65
100,-43.94,95.25,87.68,-0.06912,-0.61
100,734.58,85.99,85.83,-0.06597,1.76
100,593.61,81.30,86.27,-0.06283,1.75
100,337.47,78.65,86.27,-0.06283,3.08
100,536.51,87.57,85.10,-0.06283,1.02
100,810.79,94.31,84.96,-0.06283,-0.65
100,425.79,88.46,87.09,-0.06440,0.27
100,378.66,86.22,87.11,-0.06440,1.47
100,603.24,84.07,86.14,-0.06440,-0.21
100,695.69,90.56,86.16,-0.06597,-1.42
100,627.71,95.38,87.41,-0.06754,-1.23
100,521.93,93.07,88.44,-0.07069,-1.13
100,625.17,91.38,88.51,-0.07226,-4.49
100,810.79,103.57,89.58,-0.07540,-2.97
100,263.37,99.44,92.71,-0.08325,0.99
100,-660.74,97.22,94.45,-0.08954,-2.90
100,-245.01,103.41,93.39,-0.09268,-4.20
100,546.10,104.27,92.12,-0.09111,-4.20
100,715.62,104.30,93.21,-0.08796,-5.06
100,96.17,90.93,96.28,-0.08796,-1.26
100,-550.13,83.93,97.40,-0.08796,0.98
100,-573.67,70.82,95.21,-0.08482,6.15
100,-178.65,74.28,90.99,-0.07854,5.73
100,794.96,88.60,86.46,-0.07383,2.39
100,810.79,95.28,85.93,-0.07069,-0.10
100,410.65,86.68,89.43,-0.07226,0.84
100,-532.35,84.23,91.77,-0.07226,1.91
100,-356.96,84.03,90.07,-0.06912,3.33
100,363.06,80.78,86.71,-0.06754,0.99
100,810.79,88.14,84.49,-0.06440,-1.49
100,810.79,96.52,86.00,-0.06283,1.19
100,168.59,85.07,88.93,-0.06126,2.58
100,-292.06,77.80,89.07,-0.06283,0.98
100,97.34,87.02,87.31,-0.06283,-1.01
100,810.79,96.77,85.49,-0.06597,-0.98
100,810.79,88.26,87.23,-0.06597,-0.47
100,107.28,88.89,89.68,-0.07069,-0.47
100,61.86,90.16,89.67,-0.07383,-0.04
100,371.34,99.87,88.83,-0.07540,-2.80
100,810.79,103.76,88.82,-0.07697,-4.05
100,328.11,91.65,92.22,-0.08482,-1.37
100,-676.73,88.63,95.18,-0.08954,-0.80
100,-407.26,97.92,93.55,-0.09268,-2.20
100,810.79,110.80,90.42,-0.08796,-5.42
100,810.79,100.62,91.56,-0.08325,-3.38
100,-238.95,75.89,96.33,-0.08954,2.42
100,-810.79,78.66,97.25,-0.08796,4.86
100,-324.61,79.64,91.23,-0.07854,5.47
100,810.79,77.36,84.52,-0.06912,2.58
100,810.79,84.34,83.29,-0.06754,1.13
100,810.79,87.97,86.16,-0.06912,1.27
100,-281.50,85.32,90.26,-0.07069,1.57
100,-591.48,83.90,90.19,-0.06754,2.27
100,204.14,83.44,86.73,-0.06597,0.57
100,810.79,89.78,84.09,-0.06283,-0.40
100,810.79,89.69,85.74,-0.06283,-0.40
100,244.32,82.54,88.71,-0.06283,1.47
100,-128.07,81.08,88.98,-0.06283,2.35
100,87.56,91.49,87.37,-0.06283,0.03
100,810.79,97.77,85.43,-0.06440,-1.63
100,810.79,91.72,86.95,-0.06440,-0.90
100,171.78,84.61,89.65,-0.06754,0.49
100,-11.58,90.48,89.72,-0.07226,-0.58
100,573.72,108.04,88.65,-0.07540,-4.87
100,810.79,110.18,89.44,-0.07697,-5.83
100,577.83,104.59,93.77,-0.08168,-1.18
100,-692.86,88.03,98.05,-0.09425,-1.06
100,-810.79,90.42,97.07,-0.09739,-3.64
100,695.93,105.51,92.37,-0.09582,-6.24
100,810.79,113.98,91.51,-0.09268,-5.34
100,810.79,105.14,95.72,-0.08639,-0.42
100,-788.49,84.96,101.27,-0.09425,6.90
100,-810.79,63.30,100.86,-0.09268,7.24
100,-810.79,69.75,93.85,-0.08325,5.36
100,810.79,83.41,84.21,-0.07226,5.36
100,810.79,97.98,79.55,-0.06440,-2.13
100,810.79,93.53,80.86,-0.06283,-1.20
100,810.79,75.25,85.52,-0.06283,2.68
100,-85.30,70.03,91.28,-0.06126,4.66
100,-810.79,84.10,92.28,-0.06126,2.73
100,322.22,96.89,86.31,-0.06283,0.11
100,810.79,94.86,81.91,-0.06126,-0.72
100,810.79,88.63,82.43,-0.05969,-0.80
100,810.79,79.05,85.63,-0.05812,1.79
100,54.55,81.42,90.00,-0.05812,2.29
100,-681.04,84.29,91.20,-0.06126,0.92
100,84.30,90.00,88.13,-0.06597,-1.42
100,810.79,97.00,85.32,-0.06754,-2.69
100,810.79,98.53,87.06,-0.06912,-5.05
100,496.97,103.65,91.47,-0.07383,0.65
100,-583.96,84.41,94.48,-0.08168,-0.16
100,-432.60,86.65,92.70,-0.08482,-2.16
100,789.69,99.97,89.47,-0.08482,-5.30
100,810.79,110.64,90.46,-0.08639,-5.30
100,443.87,109.58,95.84,-0.08954,-6.41
100,-715.58,91.14,100.63,-0.09582,-1.61
100,-810.79,79.46,99.40,-0.09582,2.58
100,176.31,85.47,93.56,-0.08639,2.10
100,810.79,88.73,89.36,-0.08011,1.89
100,810.79,86.28,90.76,-0.07697,1.70
100,-343.40,74.51,93.73,-0.08011,4.69
100,-678.35,81.08,92.30,-0.07854,3.09
100,742.18,99.62,87.11,-0.07226,-1.17
100,810.79,93.47,85.59,-0.06597,-0.02
100,810.79,86.22,87.84,-0.06440,2.23
100,-48.62,79.40,91.28,-0.06126,3.60
100,-653.17,78.01,91.41,-0.06126,2.22
100,87.44,85.98,87.85,-0.06283,-0.55
100,810.79,95.96,84.60,-0.06283,-0.51
100,810.79,92.50,85.33,-0.06126,0.42
100,595.31,85.02,88.52,-0.06283,1.24
100,-292.37,82.94,90.55,-0.06440,0.32
100,-119.65,89.52,89.68,-0.06912,0.32
100,719.15,98.38,87.85,-0.07226,-1.76
100,810.79,96.54,88.80,-0.07226,-4.98
100,404.84,95.42,92.00,-0.07697,-2.31
100,114.14,88.21,93.17,-0.08168,-0.56
100,101.33,90.17,92.58,-0.08639,-0.36
100,292.97,101.96,91.90,-0.08796,-3.09
100,810.79,115.97,91.88,-0.09111,-7.27
100,550.15,105.23,95.64,-0.08954,-5.11
100,-707.91,81.95,99.89,-0.09425,0.50
100,-810.79,77.92,98.14,-0.09425,2.73
100,289.53,85.76,91.58,-0.08168,2.26
100,810.79,88.35,87.12,-0.07383,1.54
100,810.79,86.41,87.91,-0.07226,4.14
100,25.46,75.41,91.59,-0.07540,5.05
100,-810.79,73.03,92.14,-0.07540,1.45
100,362.79,89.67,86.75,-0.07069,-1.51
100,810.79,101.04,83.42,-0.06440,-0.26
100,810.79,90.55,84.20,-0.06126,2.49
100,810.79,75.85,87.33,-0.05655,2.49
100,-467.05,74.25,90.23,-0.05498,3.69
100,-368.44,85.77,88.92,-0.05655,2.05
100,563.56,88.18,85.75,-0.05812,-0.59
100,810.79,90.43,84.64,-0.05655,-0.33
100,810.79,85.58,86.79,-0.05812,0.42
100,10.16,84.45,89.21,-0.06126,1.08
100,-13.38,90.76,88.70,-0.06440,-0.04
100,630.16,96.88,87.01,-0.07069,-1.59
100,810.79,109.62,87.89,-0.07226,-5.96
100,346.36,94.70,92.01,-0.07697,-2.14
100,-565.67,85.74,94.73,-0.08482,-0.50
100,-436.01,90.70,93.20,-0.08796,-3.26
100,607.91,103.89,90.28,-0.08796,-5.72
100,810.79,110.73,90.79,-0.08796,-5.89
100,332.59,106.57,95.95,-0.08954,-1.26
100,-810.79,88.81,100.10,-0.09268,3.23
100,-810.79,75.89,96.93,-0.08954,3.62
100,574.08,80.58,89.78,-0.08011,2.38
100,810.79,88.27,86.32,-0.07226,2.38
100,810.79,87.37,87.69,-0.07226,1.74
100,-280.90,73.59,91.50,-0.07383,4.70
100,-810.79,73.51,90.75,-0.07383,1.14
100,802.28,90.92,85.09,-0.06754,-0.21
100,810.79,93.29,82.88,-0.06126,-1.27
100,810.79,77.57,84.76,-0.05969,2.33
100,406.05,74.24,88.52,-0.05655,3.51
100,-702.06,82.23,90.22,-0.05655,2.91
100,-21.74,94.82,87.17,-0.05812,0.04
100,810.79,93.79,84.11,-0.05812,-0.38
100,810.79,87.19,85.39,-0.05812,-0.01
100,280.89,86.55,88.63,-0.05969,1.09
100,-117.61,85.68,89.43,-0.06283,0.75
100,154.13,88.20,88.16,-0.06912,-1.72
100,810.79,96.92,86.57,-0.07226,-4.24
100,801.88,104.42,88.72,-0.07226,-3.70
100,152.19,99.87,92.34,-0.08011,-0.39
100,-380.74,86.90,93.83,-0.08796,-2.75
100,-417.23,96.72,93.90,-0.08954,-2.75
100,44.39,109.27,93.83,-0.09268,-5.03
100,636.55,110.88,94.00,-0.09268,-6.07
100,566.71,106.76,96.04,-0.08954,-4.11
100,31.08,99.02,98.18,-0.09268,2.54
100,-712.70,78.13,98.20,-0.08954,0.91
100,-151.60,83.58,94.73,-0.08325,3.74
100,719.26,80.47,90.58,-0.07854,3.85
100,611.36,85.86,90.02,-0.07697,1.92
100,256.85,93.94,90.71,-0.07697,-0.32
100,560.47,93.22,90.07,-0.07383,-0.42
100,575.34,82.22,90.15,-0.07069,2.02
100,350.16,79.76,89.73,-0.06912,2.59
100,414.74,83.01,88.39,-0.06754,2.48
100,692.14,84.42,86.98,-0.06754,-0.32
100,597.44,92.54,87.45,-0.06754,-0.15
100,705.20,91.39,87.66,-0.06754,1.01
100,472.30,85.03,88.44,-0.06754,1.57
100,372.64,83.16,88.16,-0.06754,0.16
100,620.93,90.02,87.29,-0.06912,0.16
100,805.64,98.63,87.84,-0.06912,-2.10
100,415.90,96.25,90.20,-0.07226,-1.98
100,466.78,94.00,90.46,-0.07540,-2.08
100,701.29,94.98,90.29,-0.07697,-3.19
100,558.43,99.72,91.92,-0.08011,-1.66
100,167.46,94.52,93.50,-0.08796,-3.12
100,136.67,99.87,94.15,-0.09111,-2.97
100,369.50,104.64,94.11,-0.09111,-4.55
100,689.07,100.58,94.38,-0.09111,-3.48
100,326.96,85.97,96.07,-0.08796,0.37
100,-272.69,82.45,96.59,-0.08796,1.72
100,-732.16,68.95,95.80,-0.08639,7.09
100,-338.14,70.19,91.03,-0.07854,4.40
100,810.79,82.39,85.21,-0.07226,1.83
100,810.79,89.60,83.72,-0.06754,0.73
100,734.78,88.26,86.78,-0.06912,1.76
100,-389.59,82.16,90.05,-0.06912,2.47
100,-516.72,80.96,89.15,-0.06754,2.34
100,277.43,84.05,85.83,-0.06597,2.34
100,810.79,91.20,83.34,-0.06283,0.29
100,810.79,91.33,84.44,-0.06126,-0.29
100,228.35,80.55,87.49,-0.05969,2.04
100,-280.79,80.40,88.09,-0.05969,1.89
100,0.52,85.09,86.62,-0.06126,0.40
100,807.39,91.00,84.47,-0.06126,-1.51
100,810.79,95.77,85.35,-0.06283,-1.02
100,342.71,86.77,88.31,-0.06754,-0.09
100,35.78,92.09,88.98,-0.07226,-1.10
100,468.63,102.15,88.07,-0.07383,-3.41
100,810.79,103.73,88.79,-0.07697,-4.24
100,197.57,89.45,92.46,-0.08482,-0.97
100,-697.82,91.61,94.88,-0.08954,-1.69
100,-262.37,96.92,93.08,-0.09111,-3.25
100,709.52,102.42,90.72,-0.08796,-4.26
100,810.79,103.54,92.16,-0.08482,-2.29
100,-121.89,94.63,96.07,-0.08796,3.03
100,-810.79,76.77,97.15,-0.08639,7.05
100,-429.41,66.34,92.10,-0.08011,7.05
100,810.79,83.55,85.34,-0.07069,3.49
100,810.79,91.90,83.51,-0.06754,1.69
100,810.79,90.39,86.14,-0.06912,0.20
100,-22.52,86.59,90.94,-0.07069,0.80
100,-727.31,85.51,92.22,-0.06912,2.34
100,46.51,83.06,88.50,-0.06754,1.57
100,810.79,86.61,84.95,-0.06440,-0.11
100,810.79,90.73,85.55,-0.06283,-0.32
100,493.53,81.34,88.65,-0.06283,1.90
100,-302.21,82.29,90.13,-0.06283,1.86
100,-209.17,93.13,88.98,-0.06283,-0.27
100,671.36,97.02,86.72,-0.06440,-1.32
100,810.79,91.81,86.84,-0.06440,-0.91
100,366.57,89.64,89.60,-0.06754,0.72
100,50.09,86.05,90.31,-0.07226,-1.27
100,336.48,94.33,89.22,-0.07540,-3.38
100,810.79,102.80,88.66,-0.07540,-4.42
100,571.17,103.85,91.70,-0.08011,-0.03
100,-371.11,86.34,94.89,-0.08954,-0.03
100,-459.89,105.12,95.29,-0.09268,-5.54
100,341.70,106.98,94.05,-0.09268,-4.15
100,764.29,105.99,94.41,-0.09111,-5.26
100,52.16,97.17,97.37,-0.09111,-3.18
100,-398.90,97.48,98.71,-0.09268,2.10
100,-623.30,83.15,97.72,-0.08954,4.43
100,-355.19,75.61,94.16,-0.08325,4.86
100,354.88,77.77,89.79,-0.07854,4.01
100,810.79,90.26,87.17,-0.07383,1.14
100,531.01,88.89,89.09,-0.07383,0.84
100,-35.41,87.91,90.72,-0.07383,0.46
100,66.29,80.98,89.82,-0.06912,2.71
100,406.16,83.52,87.63,-0.06754,2.01
100,795.69,85.13,86.07,-0.06597,-0.05
100,577.86,91.02,86.94,-0.06597,0.64
100,569.89,88.22,87.28,-0.06597,1.47
100,538.04,83.73,87.28,-0.06597,0.63
100,510.40,87.11,87.11,-0.06754,-0.50
100,621.74,92.48,87.09,-0.06754,-0.50
100,709.30,94.07,87.58,-0.06754,-1.17
100,513.43,90.41,88.78,-0.06912,-0.57
100,595.87,91.28,88.71,-0.07226,-0.99
100,810.79,101.21,89.15,-0.07383,-3.50
100,482.28,101.39,91.86,-0.07854,-3.25
100,176.57,97.86,93.57,-0.08482,-1.55
100,117.28,92.44,93.72,-0.08796,-3.33
100,314.83,99.94,93.71,-0.09111,-3.94
100,638.85,104.12,93.95,-0.09268,-4.44
100,474.07,98.11,95.77,-0.09111,-3.17
100,152.16,88.23,96.96,-0.08954,-0.19
100,-119.74,87.07,96.69,-0.08796,0.74
100,-271.69,78.46,95.79,-0.08482,4.21
100,-393.94,78.26,93.98,-0.08168,4.34
100,-162.05,80.24,91.32,-0.08011,1.19
100,482.25,90.50,88.24,-0.07540,-0.13
100,810.79,93.58,87.37,-0.07226,0.15
100,316.01,88.71,90.03,-0.07069,1.94
100,-90.90,81.53,90.63,-0.07069,1.94
100,-12.60,79.86,89.12,-0.06912,2.99
100,535.80,85.20,86.50,-0.06754,2.09
100,810.79,98.50,85.83,-0.06597,-1.74
100,581.05,91.81,88.51,-0.06597,-0.37
100,-114.76,80.02,90.03,-0.06440,1.86
100,-183.02,82.03,89.11,-0.06597,1.57
100,330.16,87.22,87.01,-0.06754,-0.90
100,810.79,95.41,85.72,-0.06754,-2.08
100,770.18,97.24,88.15,-0.06754,-1.84
100,130.79,93.42,90.77,-0.07226,0.13
100,-46.68,99.14,90.76,-0.07697,-3.06
100,596.33,109.05,89.76,-0.07854,-5.17
100,810.79,90.57,91.25,-0.08325,-0.74
100,-334.34,94.09,95.14,-0.08954,-2.87
100,-634.42,100.39,95.80,-0.09268,-2.73
100,311.42,100.64,93.32,-0.08954,-3.61
100,810.79,101.08,92.65,-0.08639,-2.76
100,213.46,97.14,95.72,-0.08796,2.26
100,-566.47,80.41,97.44,-0.08796,2.26
100,-729.97,68.23,95.05,-0.08482,6.32
100,301.25,80.15,88.99,-0.07540,4.25
100,810.79,86.88,85.08,-0.07069,3.18
100,810.79,91.95,86.61,-0.07069,0.24
100,-5.20,86.67,90.73,-0.07226,0.84
100,-632.00,85.47,91.88,-0.07069,2.17
100,-87.69,83.58,89.04,-0.06912,2.68
100,794.87,82.62,85.48,-0.06597,-0.05
100,810.79,91.58,85.36,-0.06440,-0.41
100,504.37,92.24,88.10,-0.06283,1.74
100,-50.14,82.27,89.11,-0.06283,2.39
100,-4.30,90.78,87.78,-0.06283,0.21
100,772.67,96.74,85.69,-0.06440,-1.23
100,810.79,91.19,86.65,-0.06440,-0.66
100,241.04,83.35,89.28,-0.06754,0.95
100,-37.43,85.36,89.37,-0.07226,-1.34
100,284.56,96.16,88.13,-0.07383,-4.56
100,810.79,106.90,87.43,-0.07383,-3.13
100,752.89,98.59,90.29,-0.07697,-3.13
100,-364.74,84.85,94.31,-0.08796,-0.12
100,-617.87,104.31,94.56,-0.09111,-4.96
100,728.65,109.40,91.73,-0.09111,-4.70
100,810.79,108.25,92.35,-0.08796,-5.98
100,158.88,95.09,97.19,-0.08954,-3.00
100,-810.79,74.36,100.08,-0.09425,3.24
100,-810.79,79.45,95.96,-0.08639,4.46
100,810.79,82.59,87.86,-0.07540,3.22
100,810.79,84.59,83.95,-0.06754,2.20
100,810.79,84.19,85.56,-0.06754,1.52
100,223.85,84.35,90.02,-0.07069,2.40
100,-783.59,81.84,91.96,-0.07069,1.72
100,47.67,89.18,88.27,-0.06912,1.13
100,810.79,95.39,84.88,-0.06597,-1.24
100,810.79,84.55,85.62,-0.06283,1.27
100,401.16,82.18,88.71,-0.06283,2.89
100,-288.43,80.44,89.90,-0.06126,2.28
100,-298.75,84.39,88.80,-0.06283,-0.39
100,356.49,94.09,86.51,-0.06283,-0.39
100,810.79,95.14,85.24,-0.06283,-1.14
100,714.59,88.33,87.49,-0.06440,-0.26
100,22.45,84.79,89.49,-0.06754,0.58
100,134.88,92.21,88.87,-0.07226,-0.77
100,810.79,105.86,87.75,-0.07383,-4.24
100,810.79,107.03,90.03,-0.07697,-5.17
100,101.02,102.62,94.62,-0.08482,-0.36
100,-810.79,86.32,97.25,-0.09268,-3.69
100,-178.19,99.98,94.58,-0.09425,-4.56
100,810.79,109.00,91.88,-0.09425,-6.64
100,810.79,112.08,94.43,-0.08954,-5.31
100,-103.95,103.60,100.07,-0.09268,1.52
100,-810.79,79.62,101.94,-0.09582,1.84
100,-810.79,79.44,97.06,-0.08954,5.09
100,810.79,86.09,89.03,-0.07540,2.83
100,810.79,95.95,85.82,-0.07226,-0.64
100,810.79,92.57,87.59,-0.07226,1.44
100,558.22,82.23,92.45,-0.07540,1.22
100,-810.79,84.63,95.63,-0.07540,1.22
100,-284.96,84.18,91.99,-0.07226,2.79
100,810.79,93.50,86.72,-0.06912,-0.10
100,810.79,98.81,86.06,-0.06597,-2.10
100,810.79,84.46,88.74,-0.06283,1.03
100,-187.35,74.96,92.42,-0.06283,3.23
100,-627.57,84.27,91.89,-0.06283,1.95
100,686.42,97.60,87.58,-0.06440,-0.62
100,810.79,94.89,85.95,-0.06440,-1.16
100,810.79,90.92,87.90,-0.06597,-0.90
100,228.51,89.87,91.59,-0.07069,0.31
100,-370.73,87.82,92.93,-0.07697,-1.60
100,-80.40,95.98,92.12,-0.08168,-4.47
100,782.36,107.07,91.03,-0.08168,-3.69
100,553.45,102.15,93.42,-0.08796,-0.14
100,-646.14,91.77,96.36,-0.09111,-1.48
100,-413.21,107.37,94.85,-0.09268,-4.24
100,810.79,106.63,92.13,-0.08796,-3.48
100,810.79,98.22,93.92,-0.08639,-0.58
100,-261.68,87.74,98.10,-0.09111,-0.58
100,-810.79,79.64,98.63,-0.08796,2.85
100,-110.27,72.91,93.11,-0.08011,6.05
100,810.79,82.08,87.40,-0.07226,3.78
100,810.79,94.42,86.66,-0.07069,0.26
100,521.90,86.14,90.00,-0.07226,1.69
100,-536.47,85.03,92.68,-0.07226,0.86
100,-453.28,80.94,90.95,-0.07069,2.97
100,392.43,82.03,87.01,-0.06754,0.45
100,810.79,91.05,84.64,-0.06283,-0.90
100,810.79,94.36,86.10,-0.06126,1.58
100,192.62,82.83,89.18,-0.05969,2.49
100,-384.99,78.62,89.71,-0.05969,1.74
100,-155.96,85.31,88.18,-0.06126,-0.67
100,810.79,95.64,85.78,-0.06126,-1.45
100,810.79,96.27,86.53,-0.06126,-0.97
100,313.41,84.03,89.44,-0.06597,0.74
100,-126.12,92.78,90.09,-0.06912,-1.11
100,271.43,95.64,89.13,-0.07226,-2.48
100,764.67,97.89,88.49,-0.07383,-2.48
100,497.91,104.18,90.67,-0.07697,-4.78
100,304.07,85.69,92.44,-0.08482,0.62
