SL_PWM,U,Motor_speed,SL_position,SL_speed,ARM_position,ARM_speed,Deflection,Deflection_speed,Zlin_position,Zlin_speed,Unsprung_acceleration,Sprung_acceleration_x,Sprung_acceleration_y,Sprung_acceleration_z
950.93048,145.70,0.00000,-18.39145,0.00000,0.07540,0.00000,0.00000,0.00000,0.00949,0.00046,0.00000,1.02173,0.00513,-0.06958
950.93048,145.70,5.43898,-12.26877,5.43898,0.07540,0.00000,0.00023,0.01536,0.00971,0.01412,0.00000,0.98340,-0.04297,-0.00366
142.24455,88.91,2.43266,100.75985,2.43266,0.00314,-0.09077,-0.00424,-0.00577,-0.00171,-0.01448,0.00003,1.02466,-0.04053,-0.08472
-316.96115,88.91,5.93950,109.70967,5.93950,-0.00314,0.00000,-0.00536,-0.05723,-0.00322,-0.05661,-0.01407,0.80811,-0.06152,-0.02539
-808.79224,88.91,-0.26694,110.81375,-0.26694,-0.00785,-0.22440,-0.00529,0.02553,-0.00351,0.02522,-0.00804,0.90259,-0.13721,-0.11084
-357.34924,88.91,-6.97077,102.65019,-6.97077,-0.01414,-0.19635,-0.00330,0.08469,-0.00224,0.06761,0.00068,0.89209,0.04956,-0.09546
334.54831,88.91,-5.99372,92.75019,-5.99372,-0.01571,0.00000,-0.00151,0.06437,-0.00059,0.06420,-0.00105,0.86401,-0.05444,0.04956
645.50934,88.91,-3.54581,87.06580,-5.98213,-0.01571,0.00000,-0.00034,0.05969,0.00059,0.05978,0.00000,0.84229,0.07129,-0.23413
950.93048,88.91,-1.81855,81.87323,-0.00834,-0.01571,0.00000,0.00048,0.00008,0.00141,0.00008,0.00000,0.92822,0.18213,-0.20386
950.93048,88.91,4.33783,86.68773,4.33783,-0.01571,0.00000,-0.00013,-0.04311,0.00079,-0.04327,0.00000,0.97852,-0.03589,0.04956
681.50751,88.91,4.10350,93.10483,4.10350,-0.01728,0.00000,-0.00136,-0.03573,-0.00057,-0.03572,-0.00224,1.10840,0.02563,-0.08447
301.60150,88.91,5.10530,101.45242,5.10530,-0.01728,0.00000,-0.00264,-0.05057,-0.00184,-0.05034,0.00000,0.98096,0.14795,-0.22681
-454.71439,88.91,0.68404,104.67435,0.68404,-0.01728,0.00000,-0.00334,-0.00667,-0.00254,-0.00662,0.00000,0.96387,-0.02222,-0.06885
-436.96283,88.91,-1.89363,102.77398,-1.89363,-0.01728,0.00000,-0.00309,0.01861,-0.00229,0.01849,0.00000,1.06519,-0.03589,0.01172
-237.80293,88.91,-3.62876,97.98959,-3.62876,-0.01728,0.00000,-0.00216,0.03958,-0.00137,0.03942,0.00000,1.05835,0.01074,-0.08569
89.91016,88.91,-4.62146,91.32825,-4.62146,-0.01728,0.00000,-0.00122,0.04619,-0.00043,0.04613,0.00000,1.00610,-0.00024,-0.06226
791.92657,59.43,-3.33680,85.06840,-1.49322,-0.01728,0.00000,0.00006,0.01484,0.00086,0.01488,0.00000,1.04468,-0.03052,0.03955
862.34521,59.43,2.86130,87.44387,2.86130,-0.01728,0.00000,-0.00026,-0.02857,0.00053,-0.02864,0.00000,1.05225,0.00903,-0.05981
567.06598,59.43,3.70384,92.76022,3.70384,-0.01728,0.00000,-0.00113,-0.03703,-0.00034,-0.03703,0.00000,0.98364,0.01807,-0.11353
-57.05819,59.43,1.50156,95.08216,0.63399,-0.01728,0.00000,-0.00168,-0.00633,-0.00089,-0.00632,0.00000,1.01025,0.00903,-0.06763
-108.99564,59.43,-0.54223,94.60706,-0.54223,-0.01728,0.00000,-0.00161,0.00533,-0.00082,0.00532,0.00000,1.00732,0.00000,-0.07422
-86.03506,59.43,-1.45151,92.78030,-1.45151,-0.01728,0.00000,-0.00137,0.01451,-0.00058,0.01449,0.00000,1.03345,0.01904,-0.05981
4.10478,59.43,-2.26902,89.95651,-2.26902,-0.01728,0.00000,-0.00081,0.02277,-0.00002,0.02277,0.00000,1.01807,0.00391,-0.08887
151.92577,59.43,-2.84462,86.51710,-2.84462,-0.01728,0.00000,-0.00025,0.02828,0.00054,0.02833,0.00000,1.01123,-0.00146,-0.08618
565.54211,59.43,-2.76954,81.80297,-2.76954,-0.01728,0.00000,0.00056,0.02744,0.00135,0.02756,0.00000,1.03369,0.00928,-0.03491
712.25574,59.43,-1.37643,79.91264,-1.37643,-0.01728,0.00000,0.00094,0.01349,0.00174,0.01357,0.00000,1.01880,0.00684,-0.07959
663.21143,59.43,1.10114,81.21413,1.09280,-0.01728,0.00000,0.00074,-0.01082,0.00154,-0.01087,0.00000,0.99316,-0.00952,-0.03296
525.90790,59.43,0.60062,82.28810,0.60062,-0.01728,0.00000,0.00055,-0.00592,0.00135,-0.00595,0.00000,1.02612,-0.00732,-0.11499
438.03403,59.43,-0.02503,82.29480,-0.02503,-0.01728,0.00000,0.00055,0.00025,0.00134,0.00025,0.00000,1.01538,0.01099,-0.03052
399.97046,59.43,0.00000,82.29145,0.00000,-0.01728,0.00000,0.00055,0.00000,0.00134,0.00000,0.00000,1.01416,-0.02661,-0.07080
322.11395,59.43,-0.04171,82.25130,-0.04171,-0.01728,0.00000,0.00055,0.00041,0.00135,0.00041,0.00000,1.01416,0.00000,-0.07300
292.50378,59.43,-0.21689,82.01041,-0.21689,-0.01728,0.00000,0.00058,0.00214,0.00138,0.00215,0.00000,1.02539,0.01758,-0.06519
286.10138,59.43,-0.60897,81.33457,-0.60897,-0.01728,0.00000,0.00068,0.00600,0.00147,0.00610,0.00000,1.02393,-0.00879,-0.07178
268.95450,44.70,-0.24192,80.85613,-0.24192,-0.01728,0.00000,0.00078,0.00238,0.00158,0.00239,0.00000,1.01245,0.00610,-0.05200
225.73241,44.70,-0.07508,80.70558,-0.07508,-0.01728,0.00000,0.00082,0.00074,0.00162,0.00074,0.00000,1.02368,0.00806,-0.07300
117.45209,44.70,-0.15016,80.57175,-0.15016,-0.01728,0.00000,0.00084,0.00147,0.00164,0.00148,0.00000,1.01221,0.01392,-0.06323
92.59441,44.70,-0.65068,79.91933,-0.65068,-0.01728,0.00000,0.00094,0.00637,0.00174,0.00641,0.00000,1.02002,-0.00195,-0.07446
85.04149,44.70,-0.67570,79.10297,-0.67570,-0.01728,0.00000,0.00107,0.00660,0.00186,0.00664,0.00000,1.01001,0.01196,-0.06641
107.43142,44.70,-1.30135,77.42007,-1.30135,-0.01728,0.00000,0.00136,0.01263,0.00216,0.01272,0.00000,1.00391,0.01709,-0.08203
166.93735,44.70,-1.66840,75.43271,-1.66840,-0.01728,0.00000,0.00168,0.01606,0.00248,0.01619,0.00000,1.02734,0.01001,-0.05615
232.50075,44.70,-1.77684,73.10743,-1.83524,-0.01728,0.00000,0.00210,0.01744,0.00290,0.01760,0.00000,1.02637,0.00244,-0.05713
437.21390,44.70,-1.50156,71.14015,-1.50156,-0.01728,0.00000,0.00242,0.01417,0.00323,0.01432,0.00000,1.01953,0.00220,-0.06030
491.82721,44.70,-0.72575,69.73494,-0.72575,-0.01728,0.00000,0.00266,0.00472,0.00347,0.00478,0.00000,1.01514,-0.00269,-0.06494
481.88571,44.70,0.00000,69.56431,0.00000,-0.01728,0.00000,0.00268,0.00000,0.00349,0.00000,0.00000,1.01807,0.00586,-0.05688
394.63263,44.70,0.00000,69.56431,0.00000,-0.01728,0.00000,0.00268,0.00000,0.00349,0.00000,0.00000,1.02124,-0.00146,-0.07959
351.00607,44.70,0.00000,69.56431,0.00000,-0.01728,0.00000,0.00268,0.00000,0.00349,0.00000,0.00000,1.01831,0.00879,-0.06689
307.37955,44.70,0.00000,69.56431,0.00000,-0.01728,0.00000,0.00268,0.00000,0.00349,0.00000,0.00000,1.01538,0.00220,-0.06128
263.75299,44.70,0.00000,69.56431,0.00000,-0.01728,0.00000,0.00268,0.00000,0.00349,0.00000,0.00000,1.02710,0.01172,-0.06055
220.12645,44.70,0.00000,69.56097,0.00000,-0.01728,0.00000,0.00268,0.00000,0.00349,0.00000,0.00000,1.02490,0.01074,-0.05664
225.51917,97.36,0.00000,69.56097,0.00000,-0.01728,0.00000,0.00268,0.00000,0.00349,0.00000,0.00000,1.01025,0.00488,-0.07446
274.27750,97.36,0.00000,69.56097,0.00000,-0.01728,0.00000,0.00268,0.00000,0.00349,0.00000,0.00000,1.02270,0.00317,-0.06299
323.03583,97.36,0.00000,69.56097,0.00000,-0.01728,0.00000,0.00268,0.00000,0.00349,0.00000,0.00000,1.02515,0.00562,-0.06909
371.79413,97.36,0.00000,69.56097,0.00000,-0.01728,0.00000,0.00268,0.00000,0.00349,0.00000,0.00000,1.01587,0.00220,-0.06519
420.55246,97.36,0.00000,69.56097,0.00000,-0.01728,0.00000,0.00268,0.00000,0.00349,0.00000,0.00000,1.02100,0.00122,-0.06885
518.06909,97.36,0.00834,69.56431,0.00834,-0.01728,0.00000,0.00268,-0.00008,0.00349,0.00000,0.00000,1.02344,0.00708,-0.05884
566.56653,97.36,0.00834,69.56766,0.00834,-0.01728,0.00000,0.00268,-0.00008,0.00349,-0.00008,0.00000,1.01953,-0.00195,-0.07397
615.05841,97.36,0.00834,69.57770,0.00834,-0.01728,0.00000,0.00268,-0.00008,0.00349,-0.00008,0.00000,1.02026,0.00415,-0.06567
698.95898,97.36,0.20855,69.76506,0.20855,-0.01728,0.00000,0.00265,-0.00193,0.00346,-0.00196,0.00000,1.02124,-0.00171,-0.05615
690.48969,97.36,1.09280,70.84572,1.09280,-0.01728,0.00000,0.00251,-0.01019,0.00332,-0.01029,0.00000,1.02930,-0.01196,-0.05469
597.20056,97.36,1.77684,72.94684,1.77684,-0.01728,0.00000,0.00219,-0.01675,0.00300,-0.01692,0.00000,0.99170,-0.00195,-0.09229
502.84268,97.36,1.25964,74.59294,1.25964,-0.01728,0.00000,0.00190,-0.01201,0.00271,-0.01211,0.00000,1.04395,0.01392,-0.04956
470.11661,97.36,-0.00834,75.04461,-0.00834,-0.01728,0.00000,0.00177,0.00008,0.00258,0.00008,0.00000,1.01587,-0.00464,-0.06592
505.70041,97.36,0.00000,75.03457,0.00000,-0.01728,0.00000,0.00178,0.00000,0.00258,0.00000,0.00000,1.00977,0.01733,-0.06909
584.01251,97.36,-0.00834,75.03792,0.00834,-0.01728,0.00000,0.00178,-0.00008,0.00258,-0.00008,0.00000,1.02270,-0.00415,-0.06763
622.90759,97.36,0.00000,75.03792,0.00000,-0.01728,0.00000,0.00178,0.00000,0.00258,0.00000,0.00000,1.01807,-0.00879,-0.05884
662.05811,97.36,0.06674,75.08810,0.06674,-0.01728,0.00000,0.00177,-0.00064,0.00258,-0.00064,0.00000,1.01416,-0.00562,-0.06665
636.08917,63.66,0.00000,75.11487,0.00000,-0.01728,0.00000,0.00177,0.00000,0.00257,0.00000,0.00000,1.02051,-0.01099,-0.08008
595.88983,63.66,0.00000,75.11487,0.00000,-0.01728,0.00000,0.00177,0.00000,0.00257,0.00000,0.00000,1.01196,-0.01147,-0.06152
575.79016,63.66,0.00000,75.11487,0.00000,-0.01728,0.00000,0.00177,0.00000,0.00257,0.00000,0.00000,1.01489,0.00049,-0.07446
555.69049,63.66,-0.00834,75.11152,-0.00834,-0.01728,0.00000,0.00177,0.00008,0.00257,0.00008,0.00000,1.03174,-0.00269,-0.06055
535.85168,63.66,0.00000,75.11152,0.00000,-0.01728,0.00000,0.00177,0.00000,0.00257,0.00000,0.00000,1.01416,-0.00269,-0.06445
515.75800,63.66,0.00000,75.11152,0.00000,-0.01728,0.00000,0.00177,0.00000,0.00257,0.00000,0.00000,1.02441,-0.00146,-0.06982
495.66431,63.66,0.00000,75.11152,0.00000,-0.01728,0.00000,0.00177,0.00000,0.00257,0.00000,0.00000,1.02100,-0.00342,-0.07300
475.57062,63.66,0.00000,75.10818,0.00000,-0.01728,0.00000,0.00177,0.00000,0.00257,0.00000,0.00000,1.01514,-0.00195,-0.06860
435.91196,63.66,0.00000,75.10483,0.00000,-0.01728,0.00000,0.00177,0.00000,0.00257,0.00000,0.00000,1.02246,0.00049,-0.06738
416.09122,63.66,0.00000,75.10149,0.00000,-0.01728,0.00000,0.00177,0.00000,0.00257,0.00000,0.00000,1.02466,-0.00122,-0.06885
396.27597,63.66,0.00000,75.09480,-0.00834,-0.01728,0.00000,0.00177,0.00008,0.00257,0.00008,0.00000,1.02295,0.00513,-0.06372
376.72766,63.66,-0.00834,75.08810,-0.00834,-0.01728,0.00000,0.00177,0.00008,0.00257,0.00008,0.00000,1.01245,-0.00586,-0.06885
357.19183,63.66,-0.00834,75.07807,-0.00834,-0.01728,0.00000,0.00177,0.00008,0.00257,0.00008,0.00000,1.02148,0.00708,-0.06641
337.66708,63.66,-0.00834,75.06803,-0.00834,-0.01728,0.00000,0.00177,0.00008,0.00258,0.00008,0.00000,1.01440,0.00586,-0.06396
318.41525,63.66,-0.00834,75.05799,-0.00834,-0.01728,0.00000,0.00178,0.00008,0.00258,0.00008,0.00000,1.01465,0.00293,-0.06421
280.48602,63.66,-0.01668,75.04126,-0.01668,-0.01728,0.00000,0.00178,0.00016,0.00258,0.00016,0.00000,1.02881,0.00439,-0.05273
261.56073,63.66,-0.01668,75.02454,-0.01668,-0.01728,0.00000,0.00178,0.00016,0.00258,0.00016,0.00000,1.01514,0.00073,-0.06689
213.09868,46.81,-0.00834,75.00781,-0.00834,-0.01728,0.00000,0.00178,0.00008,0.00259,0.00008,0.00000,1.02295,0.00317,-0.07446
166.48798,46.81,-0.07508,74.93420,-0.07508,-0.01728,0.00000,0.00180,0.00072,0.00260,0.00073,0.00000,1.02148,0.00391,-0.06714
123.33458,46.81,-0.02503,74.87398,-0.02503,-0.01728,0.00000,0.00181,0.00024,0.00261,0.00024,0.00000,1.02124,0.00586,-0.06738
75.88490,46.81,0.00000,74.87398,0.00000,-0.01728,0.00000,0.00181,0.00000,0.00261,0.00000,0.00000,1.01392,0.00854,-0.06421
26.64861,46.81,0.00000,74.87398,0.00000,-0.01728,0.00000,0.00181,0.00000,0.00261,0.00000,0.00000,1.02002,0.01392,-0.06909
-22.58769,46.81,0.00000,74.87398,0.00000,-0.01728,0.00000,0.00181,0.00000,0.00261,0.00000,0.00000,1.02393,0.00806,-0.06152
-120.79892,46.81,0.00000,74.87063,0.00000,-0.01728,0.00000,0.00181,0.00000,0.00261,0.00000,0.00000,1.01562,0.01172,-0.06714
-168.72470,46.81,-0.02503,74.84052,-0.02503,-0.01728,0.00000,0.00181,0.00024,0.00261,0.00024,0.00000,1.02490,0.00806,-0.06445
-211.39909,46.81,-0.15016,74.58290,-0.25026,-0.01728,0.00000,0.00185,0.00239,0.00265,0.00241,0.00000,1.02808,0.00928,-0.06885
-231.73665,46.81,-1.09280,73.46208,-1.09280,-0.01728,0.00000,0.00200,0.01049,0.00280,0.01058,0.00000,0.99976,-0.00073,-0.07349
-181.46362,46.81,-1.81021,71.18699,-1.81021,-0.01571,0.00000,0.00218,0.01714,0.00325,0.01898,0.00000,1.00513,0.01147,-0.06665
90.52245,46.81,-2.36078,67.69071,-2.36078,-0.01728,0.00000,0.00289,0.02176,0.00370,0.02200,-0.00804,1.00195,-0.00171,-0.08472
274.86804,46.81,-2.49425,64.50223,-2.49425,-0.01728,0.00000,0.00351,0.02175,0.00434,0.02204,0.00000,1.00391,0.01416,-0.07446
454.03308,46.81,-1.89363,61.52788,-1.89363,-0.01571,0.00000,0.00391,-0.01184,0.00479,0.00726,0.00804,0.98193,0.00195,-0.08203
560.69543,46.81,-0.33368,60.50743,-0.33368,-0.01571,0.00000,0.00396,0.00286,0.00492,0.00291,0.00000,1.03735,-0.00366,-0.05444
556.04932,46.81,0.20021,60.68141,0.20021,-0.01571,0.00000,0.00394,-0.00172,0.00490,-0.00174,0.00000,1.00464,-0.00049,-0.05469
506.19711,46.81,0.30031,61.04275,0.30031,-0.01571,0.00000,0.00389,-0.00259,0.00485,-0.00262,0.00000,1.02856,-0.01147,-0.07446
456.13202,38.38,0.00000,61.10297,0.00000,-0.01571,0.00000,0.00387,0.00000,0.00483,0.00000,0.00000,1.01636,-0.00635,-0.04736
416.27444,38.38,0.00000,61.10297,0.00000,-0.01571,0.00000,0.00387,0.00000,0.00483,0.00000,0.00000,1.01392,0.00610,-0.07764
376.41684,38.38,0.00000,61.09963,0.00000,-0.01571,0.00000,0.00387,0.00000,0.00483,0.00000,0.00000,1.01660,-0.00366,-0.06421
336.82013,38.38,0.00000,61.09963,0.00000,-0.01571,0.00000,0.00387,0.00000,0.00483,0.00000,0.00000,1.02441,-0.00220,-0.06372
257.37833,38.38,0.00000,61.09294,0.00000,-0.01571,0.00000,0.00387,0.00000,0.00483,0.00007,0.00000,1.01929,0.01001,-0.07617
218.31590,38.38,-0.01668,61.07286,-0.01668,-0.01571,0.00000,0.00387,0.00014,0.00484,0.00015,0.00000,1.02051,-0.00049,-0.07397
180.57607,38.38,-0.13347,60.95242,-0.13347,-0.01571,0.00000,0.00389,0.00108,0.00485,0.00109,0.00000,1.01636,0.00659,-0.05371
140.92368,38.38,-0.35871,60.52416,-0.35871,-0.01571,0.00000,0.00394,0.00308,0.00490,0.00313,0.00000,1.01025,0.00439,-0.08008
151.63654,38.38,-0.55891,59.81822,-0.55891,-0.01571,0.00000,0.00404,0.00370,0.00503,0.00375,0.00000,1.01196,0.00269,-0.05273
148.06107,38.38,-0.37539,59.27955,-0.37539,-0.01571,0.00000,0.00413,0.00318,0.00510,0.00323,0.00000,1.01245,-0.00244,-0.06177
152.82619,38.38,-0.62565,58.57361,-0.62565,-0.01571,0.00000,0.00423,0.00527,0.00519,0.00535,0.00000,1.01123,0.00391,-0.07739
161.66231,38.38,-0.36705,58.07175,-0.36705,-0.01414,0.00000,0.00419,0.00327,0.00529,0.00333,0.00000,1.01514,0.01147,-0.06519
161.32756,38.38,-0.54223,57.30223,-0.54223,-0.01414,0.00000,0.00430,0.00373,0.00540,0.00379,0.00000,1.01880,-0.00024,-0.07153
152.78545,38.38,0.01668,57.16506,0.01668,-0.01414,0.00000,0.00432,-0.00014,0.00542,-0.00014,0.00000,1.02319,0.00439,-0.05420
119.57481,38.38,0.00000,57.16506,0.00000,-0.01414,0.00000,0.00432,0.00000,0.00542,0.00000,0.00000,1.01685,-0.00146,-0.06128
86.88093,38.38,0.00000,57.16506,0.00000,-0.01414,0.00000,0.00432,0.00000,0.00542,0.00000,0.00000,1.02344,0.00757,-0.05713
53.93167,38.38,0.00000,57.16506,0.00000,-0.01414,0.00000,0.00432,0.00000,0.00542,0.00000,0.00000,1.01221,0.00610,-0.06982
13.59396,34.17,0.00000,57.16506,0.00000,-0.01414,0.00000,0.00432,0.00000,0.00542,0.00000,0.00000,1.01343,0.00122,-0.07300
-67.08144,34.17,0.00000,57.16506,0.00000,-0.01414,0.00000,0.00432,0.00000,0.00542,0.00000,0.00000,1.03027,0.00195,-0.06738
-107.41914,34.17,0.00000,57.16506,0.00000,-0.01414,0.00000,0.00432,0.00000,0.00542,0.00000,0.00000,1.01147,0.00195,-0.07520
-147.75684,34.17,0.00000,57.16506,0.00000,-0.01414,0.00000,0.00432,0.00000,0.00542,0.00000,0.00000,1.01392,0.00342,-0.07617
-188.09454,34.17,0.00000,57.15836,0.00000,-0.01414,0.00000,0.00432,0.00000,0.00542,0.00000,0.00000,1.02124,0.01123,-0.06543
-227.91043,34.17,-0.07508,57.08141,-0.07508,-0.01414,0.00000,0.00433,0.00062,0.00543,0.00063,0.00000,1.01514,0.00708,-0.06177
-260.40479,34.17,-0.53389,56.43903,-0.74244,-0.01414,0.00000,0.00443,0.00609,0.00553,0.00619,0.00000,1.01221,0.00415,-0.07544
-199.51079,34.17,-1.24296,54.55204,-1.24296,-0.01257,0.22440,0.00448,-0.00906,0.00581,0.01152,-0.00804,0.99487,0.00439,-0.05542
-110.67786,34.17,-1.48487,52.46097,-1.48487,-0.01100,0.22440,0.00467,-0.00752,0.00606,0.01186,0.00804,0.99023,-0.00488,-0.06714
-11.44425,34.17,-1.35974,50.57732,-1.35974,-0.00942,0.00000,0.00490,-0.00870,0.00637,0.01072,0.00804,1.02808,0.01855,-0.05591
160.28067,34.17,-1.20959,48.60335,-1.20959,-0.00785,0.22440,0.00495,0.00779,0.00662,0.00797,-0.00804,1.02881,0.00537,-0.06860
199.05420,34.17,-0.79249,47.70669,-0.79249,-0.00628,0.22440,0.00492,-0.01353,0.00672,0.00588,0.00804,1.03149,-0.00293,-0.07471
234.58394,34.17,-0.47549,47.05093,-0.47549,-0.00628,0.00000,0.00500,0.00341,0.00680,0.00349,0.00000,1.04297,0.00586,-0.07324
251.88446,34.17,-0.10845,46.78996,-0.10845,-0.00628,0.00000,0.00504,0.00077,0.00685,-0.00043,0.00000,1.03271,0.00513,-0.06226
233.80728,34.17,0.00000,46.81004,0.00000,-0.00628,0.00000,0.00504,0.00000,0.00684,0.00000,0.00000,1.01611,0.00195,-0.06689
188.95267,34.17,0.00000,46.81004,0.00000,-0.00628,0.00000,0.00504,0.00000,0.00684,0.00000,0.00000,1.01782,0.00586,-0.06909
268.38989,92.09,0.00000,46.81004,0.00000,-0.00628,0.00000,0.00504,0.00000,0.00684,0.00000,0.00000,1.02661,-0.00195,-0.06421
347.82709,92.09,0.03337,46.84015,0.03337,-0.00628,0.00000,0.00504,-0.00024,0.00684,-0.00018,0.00000,1.01831,-0.00171,-0.06641
496.73376,92.09,0.10010,47.00074,0.10010,-0.00628,0.00000,0.00501,-0.00101,0.00681,-0.00104,0.00000,1.02124,-0.00708,-0.06616
563.93927,92.09,0.31700,47.33866,0.31700,-0.00628,0.00000,0.00497,-0.00227,0.00678,-0.00233,0.00000,1.02124,-0.00781,-0.07300
619.64905,92.09,1.22627,48.71041,1.22627,-0.00628,0.00000,0.00484,-0.00892,0.00664,-0.00913,0.00000,1.02441,-0.00464,-0.05786
537.01953,92.09,1.90197,51.44387,2.04379,-0.00628,0.00000,0.00447,-0.01549,0.00626,-0.01584,0.00000,1.01221,-0.00049,-0.07104
429.18512,92.09,1.83524,54.09368,1.83524,-0.00785,0.00000,0.00429,-0.01446,0.00594,-0.01476,0.00000,1.02075,-0.00781,-0.08179
352.00424,92.09,0.60897,55.41859,0.60897,-0.00785,0.00000,0.00403,-0.00491,0.00568,-0.00500,0.00000,1.01538,0.00732,-0.06152
353.50949,92.09,-0.07508,55.37509,-0.07508,-0.00785,0.00000,0.00404,0.00061,0.00568,0.00062,0.00000,1.00977,-0.00610,-0.07617
488.99170,92.09,0.00000,55.36171,0.00000,-0.00785,0.00000,0.00404,0.00000,0.00568,0.00000,0.00000,1.00537,-0.00562,-0.06958
553.42676,92.09,0.00000,55.36171,0.00000,-0.00785,0.00000,0.00404,0.00000,0.00568,0.00000,0.00000,1.01221,0.00830,-0.07495
617.86182,92.09,0.02503,55.38178,0.00834,-0.00785,0.00000,0.00404,-0.00007,0.00568,-0.00007,0.00000,1.01050,-0.01099,-0.05664
709.10370,92.09,0.80917,55.95390,0.80917,-0.00942,-0.22440,0.00409,0.01260,0.00560,-0.00669,0.00804,1.02783,-0.01001,-0.06177
623.62799,92.09,2.24399,58.41301,2.24399,-0.00942,0.00000,0.00378,-0.01862,0.00528,-0.01896,0.00000,1.04541,0.00513,-0.06299
478.93344,92.09,2.22731,61.61152,1.95203,-0.01100,0.00000,0.00339,-0.01684,0.00475,-0.01711,0.00000,1.00195,-0.00049,-0.07837
394.89740,92.09,0.89259,63.06022,0.55891,-0.01100,0.00000,0.00317,-0.00490,0.00453,-0.00498,0.00000,1.00659,-0.01978,-0.04907
320.57452,61.02,-0.18352,62.95651,-0.18352,-0.01100,0.00000,0.00319,0.00161,0.00455,0.00164,0.00000,1.02393,0.00391,-0.09351
327.12546,61.02,0.00000,62.92305,0.00000,-0.01100,0.00000,0.00319,0.00000,0.00455,0.00000,0.00000,1.01147,0.03052,-0.06372
323.79550,61.02,0.00000,62.92305,0.00000,-0.01100,0.00000,0.00319,0.00000,0.00455,0.00000,0.00000,1.01831,-0.01099,-0.08276
320.46552,61.02,0.00000,62.92305,0.00000,-0.01100,0.00000,0.00319,0.00000,0.00455,0.00000,0.00000,1.01685,-0.00146,-0.06006
317.13556,61.02,0.00000,62.92305,0.00000,-0.01100,0.00000,0.00319,0.00000,0.00455,0.00000,0.00000,1.01831,0.00708,-0.08740
313.80560,61.02,0.00000,62.92305,0.00000,-0.01100,0.00000,0.00319,0.00000,0.00455,0.00000,0.00000,1.01172,-0.00610,-0.06372
307.14569,61.02,0.00000,62.92305,0.00000,-0.01100,0.00000,0.00319,0.00000,0.00455,0.00000,0.00000,1.01123,0.00903,-0.08276
303.81573,61.02,0.00000,62.92305,0.00000,-0.01100,0.00000,0.00319,0.00000,0.00455,0.00000,0.00000,1.02222,0.01147,-0.06763
300.48578,61.02,0.00000,62.92305,0.00000,-0.01100,0.00000,0.00319,0.00000,0.00455,0.00000,0.00000,1.01099,-0.00098,-0.06714
293.82584,61.02,0.00000,62.92305,0.00000,-0.01100,0.00000,0.00319,0.00000,0.00455,0.00000,0.00000,1.02637,0.00195,-0.06128
290.49588,61.02,0.00000,62.92305,0.00000,-0.01100,0.00000,0.00319,0.00000,0.00455,0.00000,0.00000,1.02417,0.01343,-0.06836
287.16592,61.02,0.00000,62.92305,0.00000,-0.01100,0.00000,0.00319,0.00000,0.00455,0.00000,0.00000,1.01880,-0.00439,-0.06152
283.83597,61.02,0.00000,62.92305,0.00000,-0.01100,0.00000,0.00319,0.00000,0.00455,0.00000,0.00000,1.00830,0.00269,-0.06104
280.50601,61.02,0.00000,62.92305,0.00000,-0.01100,0.00000,0.00319,0.00000,0.00455,0.00000,0.00000,1.02002,0.00513,-0.05737
277.17606,61.02,0.00000,62.92305,0.00000,-0.01100,0.00000,0.00319,0.00000,0.00455,0.00000,0.00000,1.02319,0.00537,-0.05713
273.84610,61.02,0.00000,62.92305,0.00000,-0.01100,0.00000,0.00319,0.00000,0.00455,0.00000,0.00000,1.00757,-0.00562,-0.06494
345.24258,105.52,0.00000,62.92305,0.00000,-0.01100,0.00000,0.00319,0.00000,0.00455,0.00000,0.00000,1.02466,0.00488,-0.06812
419.96902,105.52,0.00000,62.92639,0.00000,-0.01100,0.00000,0.00319,0.00000,0.00455,0.00000,0.00000,1.01904,-0.00244,-0.06860
494.43460,105.52,0.00000,62.92639,0.00000,-0.01100,0.00000,0.00319,0.00000,0.00455,0.00000,0.00000,1.01758,0.00195,-0.06494
569.15503,105.52,0.02503,62.93978,0.02503,-0.01100,0.00000,0.00319,-0.00022,0.00455,-0.00022,0.00000,1.02222,0.00195,-0.07739
642.57050,105.52,0.05839,62.98996,0.05839,-0.01100,0.00000,0.00319,-0.00051,0.00455,-0.00052,0.00000,1.02441,0.00024,-0.07275
710.73505,105.52,0.40042,63.47844,0.40042,-0.01100,0.00000,0.00315,-0.00352,0.00446,-0.00686,0.00000,1.03467,-0.00317,-0.06006
626.00433,105.52,2.28570,66.29219,2.28570,-0.01100,0.00000,0.00277,-0.02045,0.00412,-0.02075,0.00000,1.01147,-0.00317,-0.10449
472.63388,105.52,2.36912,69.49405,2.36912,-0.01100,0.00000,0.00215,-0.01978,0.00338,-0.01661,0.00000,1.02637,0.01294,-0.07812
386.57092,105.52,0.50886,71.33755,0.50886,-0.01100,0.00000,0.00186,-0.00476,0.00320,-0.00482,0.00000,1.00293,-0.00171,-0.06201
404.94571,105.52,-0.12513,71.21375,-0.12513,-0.01100,0.00000,0.00188,0.00117,0.00322,0.00118,0.00000,1.02808,-0.00806,-0.06665
474.83710,105.52,0.00000,71.20706,0.00000,-0.01100,0.00000,0.00188,0.00000,0.00322,0.00000,0.00000,1.01880,0.01294,-0.04956
535.03119,105.52,0.00000,71.21041,0.00000,-0.01100,0.00000,0.00188,0.00000,0.00322,0.00000,0.00000,1.02002,-0.01050,-0.07227
654.63025,105.52,0.02503,71.25725,0.02503,-0.01100,0.00000,0.00188,-0.00023,0.00321,-0.00071,0.00000,1.01831,-0.01172,-0.05664
708.54089,105.52,0.40876,71.72900,0.40876,-0.01257,-0.22440,0.00196,0.01507,0.00317,-0.00395,-0.00804,1.04126,0.00342,-0.06006
641.29315,105.52,2.24399,74.93420,2.24399,-0.01257,0.00000,0.00144,-0.02139,0.00264,-0.02159,0.00000,1.01270,-0.01050,-0.05322
530.84229,105.52,1.76850,76.99182,1.76850,-0.01257,0.00000,0.00110,-0.01704,0.00230,-0.01719,0.00000,1.01685,0.00366,-0.04761
444.58600,105.52,0.77580,78.15279,0.77580,-0.01257,0.00000,0.00087,-0.00753,0.00207,-0.00759,0.00000,1.01782,0.00415,-0.05078
489.01077,127.77,-0.00834,78.13271,0.00000,-0.01257,0.00000,0.00086,0.00000,0.00206,0.00000,0.00000,1.02539,0.01270,-0.06787
577.35773,127.77,0.00000,78.13271,0.00000,-0.01257,0.00000,0.00086,0.00000,0.00206,0.00000,0.00000,1.01270,0.00000,-0.05908
741.05762,127.77,0.18352,78.29665,0.18352,-0.01257,0.00000,0.00084,-0.00178,0.00203,-0.00180,0.00000,1.02148,-0.01172,-0.07446
719.03168,127.77,1.84358,80.52825,2.21063,-0.01257,0.00000,0.00027,-0.02344,0.00146,-0.02357,0.00000,1.01392,-0.00513,-0.03760
593.00537,127.77,2.11052,85.03160,2.11052,-0.01257,0.00000,-0.00022,-0.02091,0.00097,-0.02099,0.00000,1.02661,0.01343,-0.07227
442.14169,127.77,1.01772,86.33643,1.01772,-0.01257,0.00000,-0.00052,-0.01004,0.00064,-0.00458,0.00000,1.00854,0.00439,-0.08032
518.84253,127.77,-0.23358,86.13569,-0.23358,-0.01257,0.00000,-0.00052,0.00232,0.00067,0.00233,0.00000,1.02173,0.00317,-0.07031
608.42346,127.77,-0.01668,86.01190,-0.01668,-0.01257,0.00000,-0.00049,0.00017,0.00070,0.00017,0.00000,1.01416,0.00903,-0.05273
681.67273,127.77,0.08342,86.12230,0.20021,-0.01257,0.00000,-0.00051,-0.00199,0.00068,-0.00200,0.00000,1.02148,-0.00391,-0.06104
739.25751,127.77,1.05943,87.02900,1.05943,-0.01257,0.00000,-0.00064,-0.01055,0.00055,-0.01058,0.00000,1.03906,-0.00806,-0.04687
624.89508,127.77,2.27736,90.06022,2.48591,-0.01414,0.00000,-0.00104,-0.02484,0.00002,-0.02486,0.00000,1.03052,0.00659,-0.08643
493.84082,127.77,1.84358,92.80372,1.84358,-0.01414,0.00000,-0.00148,-0.01835,-0.00042,-0.01834,0.00000,1.02075,-0.00024,-0.06982
450.22568,127.77,0.35036,93.49294,0.00000,-0.01414,0.00000,-0.00167,0.00000,-0.00061,0.00000,0.00000,1.02295,0.00244,-0.06738
504.99109,127.77,0.00000,93.49294,0.00000,-0.01414,0.00000,-0.00167,0.00000,-0.00061,0.00000,0.00000,1.01978,-0.01270,-0.05957
625.23969,127.77,0.00834,93.49628,0.00000,-0.01414,0.00000,-0.00167,0.00000,-0.00061,0.00000,0.00000,1.01587,-0.01245,-0.07349
734.19202,138.89,0.60897,93.98810,0.60897,-0.01414,0.00000,-0.00175,-0.00609,-0.00069,-0.00608,0.00000,1.02124,0.01050,-0.06348
721.76654,138.89,1.61835,95.53383,1.61835,-0.01414,0.00000,-0.00200,-0.01616,-0.00094,-0.01612,0.00000,1.01807,-0.01782,-0.08081
628.70782,138.89,2.11052,98.28736,2.11052,-0.01414,0.00000,-0.00241,-0.02109,-0.00136,-0.02101,0.00000,1.00000,0.00342,-0.10986
536.00464,138.89,1.38477,100.14424,1.38477,-0.01571,-0.22440,-0.00269,-0.00900,-0.00176,-0.00896,-0.00804,1.00562,-0.00171,-0.08594
526.24683,138.89,0.00834,100.45874,0.00834,-0.01571,0.00000,-0.00274,0.00000,-0.00182,0.00000,0.00000,1.02417,-0.00757,-0.07837
587.02496,138.89,0.00000,100.46208,0.00000,-0.01571,0.00000,-0.00274,0.00000,-0.00182,0.00000,0.00000,1.01196,0.00220,-0.05786
706.44781,138.89,0.28363,100.71301,0.28363,-0.01571,0.00000,-0.00279,-0.00280,-0.00186,-0.00279,0.00000,1.02466,-0.00854,-0.06567
720.51819,138.89,0.86757,101.81375,0.86757,-0.01571,0.00000,-0.00293,-0.00855,-0.00200,-0.00851,0.00000,1.01880,-0.00269,-0.07690
691.62762,138.89,1.75182,103.82119,1.75182,-0.01571,0.00000,-0.00330,-0.01708,-0.00237,-0.01696,0.00000,1.02124,-0.00415,-0.06494
602.12927,138.89,1.15954,105.75836,1.15954,-0.01571,0.00000,-0.00366,-0.00834,-0.00273,-0.00827,0.00000,1.01050,-0.01099,-0.05542
602.68201,138.89,-0.01668,106.02602,-0.01668,-0.01728,0.00000,-0.00356,0.00016,-0.00276,0.00016,0.00000,1.02783,0.00073,-0.05688
660.33417,138.89,0.00000,106.02602,0.00000,-0.01728,0.00000,-0.00356,0.00000,-0.00276,0.00000,0.00000,1.02539,0.00513,-0.07007
753.97058,138.89,0.30865,106.41747,0.30865,-0.01728,0.00000,-0.00359,-0.00299,-0.00283,-0.00552,0.00000,1.02954,-0.00073,-0.05981
693.65808,138.89,1.94368,108.58885,1.94368,-0.01728,0.00000,-0.00395,-0.01866,-0.00315,-0.01849,0.00000,1.00659,0.00171,-0.08887
578.23096,138.89,1.66840,110.98773,1.20959,-0.01728,0.00000,-0.00439,-0.01143,-0.00358,-0.01131,0.00000,1.00903,0.00293,-0.08423
521.37695,138.89,-0.01668,111.50632,-0.01668,-0.01728,0.00000,-0.00448,0.00016,-0.00366,0.00116,0.00000,1.00684,-0.01001,-0.07959
514.06970,84.42,0.00000,111.46952,0.00000,-0.01728,0.00000,-0.00447,0.00000,-0.00366,0.00000,0.00000,1.02002,0.00903,-0.05933
466.62366,84.42,0.00000,111.46617,-0.00834,-0.01728,0.00000,-0.00447,0.00008,-0.00366,0.00008,0.00000,1.01440,-0.00684,-0.07275
419.43851,84.42,-0.03337,111.43941,-0.03337,-0.01728,0.00000,-0.00447,0.00031,-0.00366,0.00031,0.00000,1.02100,-0.00024,-0.06201
334.52637,84.42,-0.10010,111.31561,-0.10010,-0.01728,0.00000,-0.00445,0.00094,-0.00364,0.00078,0.00000,1.02954,0.00317,-0.06372
290.96536,84.42,0.00000,111.29219,0.00000,-0.01728,0.00000,-0.00444,0.00000,-0.00363,0.00000,0.00000,1.02197,0.00024,-0.05981
243.83110,84.42,-0.00834,111.28550,-0.00834,-0.01728,0.00000,-0.00444,0.00008,-0.00363,0.00008,0.00000,1.02246,0.00977,-0.06250
197.21873,84.42,-0.05005,111.24201,-0.05005,-0.01728,0.00000,-0.00444,0.00047,-0.00363,0.00047,0.00000,1.02466,0.00806,-0.06128
119.50096,84.42,-0.16684,111.02454,-0.22523,-0.01728,0.00000,-0.00440,0.00212,-0.00359,0.00210,0.00000,1.01855,0.00684,-0.07544
112.42963,84.42,-0.76746,110.10446,-0.76746,-0.01728,0.00000,-0.00429,0.00726,-0.00348,0.00719,0.00000,1.03589,0.00195,-0.06323
164.98871,84.42,-1.42648,108.31784,-1.42648,-0.01728,0.00000,-0.00403,0.01361,-0.00323,0.01348,0.00000,1.01636,0.01050,-0.04736
267.27380,84.42,-1.86861,105.51413,-1.86861,-0.01728,0.00000,-0.00355,0.01808,-0.00275,0.01793,0.00000,1.03882,0.00757,-0.07739
395.02991,84.42,-1.69342,103.12862,-1.62669,-0.01728,0.00000,-0.00307,0.01592,-0.00227,0.01582,0.00000,1.02148,0.00977,-0.05225
587.43469,84.42,-0.92596,101.77026,-0.92596,-0.01728,0.00000,-0.00284,0.00911,-0.00204,0.00906,0.00000,1.02295,0.00073,-0.04761
586.23987,84.42,0.16684,101.63643,0.15850,-0.01728,0.00000,-0.00282,-0.00156,-0.00202,-0.00155,0.00000,1.01318,0.00830,-0.06519
545.76538,84.42,0.00000,101.67658,0.00000,-0.01728,0.00000,-0.00282,0.00000,-0.00202,0.00000,0.00000,1.02441,-0.00049,-0.07373
485.23251,84.42,0.00000,101.67658,0.00000,-0.01728,0.00000,-0.00282,0.00000,-0.00202,0.00000,0.00000,1.02075,-0.01172,-0.05786
407.45331,57.19,0.00000,101.67323,0.00000,-0.01728,0.00000,-0.00282,0.00000,-0.00202,0.00000,0.00000,1.02905,0.00928,-0.06494
329.41876,57.19,0.00000,101.66989,0.00000,-0.01728,0.00000,-0.00282,0.00000,-0.00202,0.00000,0.00000,1.02393,0.00439,-0.06274
251.64508,57.19,-0.00834,101.65651,-0.00834,-0.01728,0.00000,-0.00282,0.00008,-0.00202,0.00008,0.00000,1.01465,-0.00073,-0.06592
98.48244,57.19,-0.02503,101.62974,-0.02503,-0.01728,0.00000,-0.00281,0.00025,-0.00202,0.00025,0.00000,1.02002,0.00537,-0.07617
24.43447,57.19,-0.06674,101.55613,-0.06674,-0.01728,0.00000,-0.00280,0.00066,-0.00200,0.00065,0.00000,1.01685,0.00049,-0.05957
-49.78664,57.19,0.00000,101.53606,0.00000,-0.01728,0.00000,-0.00280,0.00000,-0.00200,0.00000,0.00000,1.02222,0.00244,-0.06128
-127.58051,57.19,-0.00834,101.53271,-0.00834,-0.01728,0.00000,-0.00280,0.00008,-0.00200,0.00008,0.00000,1.01904,0.00708,-0.06494
-205.11349,57.19,-0.07508,101.45242,-0.07508,-0.01728,0.00000,-0.00279,0.00074,-0.00199,0.00074,0.00000,1.01733,0.00513,-0.07397
-297.89395,57.19,-0.79249,100.56580,-0.79249,-0.01728,0.00000,-0.00270,0.00774,-0.00190,0.01254,0.00000,1.02686,-0.00537,-0.07935
-207.45525,57.19,-2.48591,97.02937,-2.48591,-0.01728,0.00000,-0.00217,0.02831,-0.00118,0.02821,0.00000,1.02173,0.00586,-0.05298
-21.63457,57.19,-3.60374,91.30818,-3.60374,-0.01728,0.00000,-0.00127,0.03820,-0.00021,0.03818,0.00000,1.02661,0.01440,-0.07471
497.30939,57.19,-3.74555,84.71041,-3.74555,-0.01728,0.00000,0.00002,0.03735,0.00081,0.03745,0.00000,1.01587,-0.01660,-0.06519
753.57428,57.19,-1.74348,81.91673,-1.74348,-0.01728,0.00000,0.00061,0.00378,0.00141,0.00380,0.00000,1.01733,-0.00781,-0.07056
787.56476,57.19,2.61938,84.69033,2.61938,-0.01728,0.00000,0.00026,-0.02600,0.00106,-0.02610,0.00000,1.02490,0.02002,-0.04590
255.35794,57.19,2.51094,88.04275,2.51094,-0.01728,0.00000,-0.00034,-0.02493,0.00046,-0.02499,0.00000,1.02026,-0.01123,-0.08105
116.75668,57.19,-0.31700,88.49442,-0.31700,-0.01728,0.00000,-0.00056,0.00316,0.00023,0.00317,0.00000,0.98389,-0.01978,-0.07910
208.29294,103.60,-1.13451,87.08587,-1.13451,-0.01728,0.00000,-0.00036,0.01347,0.00053,0.01350,0.00000,1.02100,0.00781,-0.08008
352.47000,103.60,-1.44316,85.05836,-1.44316,-0.01728,0.00000,0.00004,0.01435,0.00083,0.01439,0.00000,1.02295,-0.00415,-0.04199
624.10510,103.60,-0.83420,83.74684,-0.83420,-0.01728,0.00000,0.00027,0.00827,0.00109,0.00415,0.00000,1.02710,-0.02075,-0.07275
650.02484,103.60,0.28363,84.02119,0.28363,-0.01728,0.00000,0.00026,-0.00281,0.00105,-0.00282,0.00000,1.02100,0.01514,-0.06152
639.45789,103.60,0.54223,84.77063,0.39207,-0.01728,0.00000,0.00012,-0.00389,0.00091,-0.00390,0.00000,1.02197,-0.01855,-0.07910
639.88489,103.60,0.10010,84.98476,0.10010,-0.01728,0.00000,0.00008,-0.00100,0.00087,-0.00100,0.00000,1.01562,-0.00806,-0.07324
664.88885,103.60,0.18352,85.15539,0.18352,-0.01728,0.00000,0.00006,-0.00182,0.00085,-0.00183,0.00000,1.01147,0.00464,-0.06372
663.14722,103.60,0.90928,86.20260,0.90928,-0.01728,0.00000,-0.00014,-0.00822,0.00065,-0.00824,0.00000,1.01392,0.00537,-0.06177
621.20746,103.60,0.72575,87.28327,0.72575,-0.01728,0.00000,-0.00030,-0.00723,0.00049,-0.00725,0.00000,1.01953,-0.00415,-0.06982
605.03528,103.60,0.00000,87.35688,0.00000,-0.01728,0.00000,-0.00033,0.00000,0.00046,0.00000,0.00000,1.01587,-0.00171,-0.06714
634.04449,103.60,0.00000,87.35688,0.00000,-0.01728,0.00000,-0.00033,0.00000,0.00046,0.00000,0.00000,1.01587,-0.00879,-0.06226
691.04138,103.60,0.03337,87.37361,0.03337,-0.01728,0.00000,-0.00033,-0.00033,0.00046,-0.00033,0.00000,1.01709,-0.00122,-0.06567
712.23035,103.60,0.35871,87.81190,0.35871,-0.01728,0.00000,-0.00037,-0.00707,0.00037,-0.00709,0.00000,1.02319,-0.00806,-0.06982
682.08643,103.60,1.11783,89.40446,1.11783,-0.01728,0.00000,-0.00066,-0.01125,0.00013,-0.01126,0.00000,1.00684,-0.01025,-0.08130
551.53180,103.60,0.70907,90.58216,0.70907,-0.01728,0.00000,-0.00087,-0.00709,-0.00008,-0.00709,0.00000,1.01270,0.00195,-0.06177
565.57758,103.60,-0.00834,90.64907,0.00000,-0.01728,0.00000,-0.00090,0.00000,-0.00011,0.00000,0.00000,1.03198,-0.00269,-0.07690
629.01086,126.81,0.00834,90.65242,0.00834,-0.01728,0.00000,-0.00091,-0.00008,-0.00011,-0.00008,0.00000,1.01904,0.00244,-0.06201
692.18274,126.81,0.50052,90.91338,0.50052,-0.01728,0.00000,-0.00095,-0.00500,-0.00016,-0.00500,0.00000,1.03003,-0.00415,-0.06445
712.79620,126.81,1.23461,92.30186,1.23461,-0.01885,0.00000,-0.00103,-0.01243,-0.00037,-0.01242,0.00000,0.99585,-0.00659,-0.08887
666.39838,126.81,1.40145,94.23234,1.40145,-0.01885,0.00000,-0.00135,-0.01401,-0.00069,-0.01399,0.00000,1.02661,0.00195,-0.06055
595.05975,126.81,0.25860,95.05539,0.25860,-0.01885,0.00000,-0.00154,-0.00258,-0.00088,-0.00258,0.00000,1.01978,0.00439,-0.06396
646.66174,126.81,0.00000,95.06543,0.00000,-0.01885,0.00000,-0.00154,0.00000,-0.00088,0.00000,0.00000,1.01904,-0.00732,-0.07104
702.34723,126.81,0.06674,95.15242,0.06674,-0.01885,0.00000,-0.00155,-0.00067,-0.00089,-0.00066,0.00000,1.02368,0.00488,-0.04077
731.66608,126.81,0.53389,95.84164,0.53389,-0.01885,0.00000,-0.00164,-0.00533,-0.00098,-0.00531,0.00000,1.01758,0.00098,-0.07129
712.87817,126.81,1.69342,97.94944,1.69342,-0.01885,0.00000,-0.00200,-0.01685,-0.00134,-0.01679,0.00000,1.01025,-0.00171,-0.08911
614.37195,126.81,1.50990,100.09405,1.50990,-0.01885,0.00000,-0.00236,-0.01496,-0.00170,-0.01489,0.00000,1.00952,-0.00659,-0.06836
513.09515,126.81,0.52555,100.83011,0.08342,-0.01885,0.00000,-0.00254,-0.00082,-0.00188,-0.00082,0.00000,1.01709,-0.01733,-0.07031
562.57220,126.81,0.00000,100.78662,0.00000,-0.01885,0.00000,-0.00254,0.00000,-0.00187,0.00000,0.00000,1.02441,-0.00269,-0.05640
653.87012,126.81,0.00834,100.78996,0.00834,-0.01885,0.00000,-0.00254,-0.00008,-0.00187,-0.00008,0.00000,1.02783,-0.00586,-0.07568
699.25769,126.81,0.11679,100.86691,0.11679,-0.01885,0.00000,-0.00254,-0.00115,-0.00188,-0.00115,0.00000,1.01831,-0.01196,-0.08374
723.75433,126.81,0.59228,101.55948,0.59228,-0.01885,0.00000,-0.00263,-0.00584,-0.00197,-0.00581,0.00000,1.02490,-0.00366,-0.07446
690.86444,126.81,1.36809,103.06506,1.36809,-0.01885,0.00000,-0.00292,-0.01342,-0.00226,-0.01334,0.00000,1.00586,-0.00635,-0.05566
617.27332,138.41,0.70073,104.40669,0.70073,-0.01885,0.00000,-0.00313,-0.00684,-0.00246,-0.00680,0.00000,1.01758,-0.00073,-0.06250
662.14722,138.41,0.00000,104.54052,0.00000,-0.01885,0.00000,-0.00318,0.00000,-0.00251,0.00000,0.00000,1.00830,-0.00610,-0.08032
721.56659,138.41,0.08342,104.62751,0.08342,-0.01885,0.00000,-0.00318,-0.00081,-0.00252,-0.00081,0.00000,1.02783,0.00854,-0.05273
760.62274,138.41,0.65902,105.47398,0.65902,-0.02042,0.00000,-0.00327,0.00620,-0.00269,-0.01255,0.00804,1.04224,-0.00903,-0.05566
713.59424,138.41,2.16892,108.89665,2.16892,-0.02042,0.00000,-0.00379,-0.02131,-0.00325,-0.02112,0.00000,1.01929,0.00195,-0.07104
488.29086,138.41,0.89259,110.70669,0.89259,-0.02042,0.00000,-0.00406,-0.00844,-0.00352,-0.00836,0.00000,1.02246,0.01050,-0.04980
515.94952,138.41,0.00000,110.71673,0.00000,-0.02042,0.00000,-0.00408,0.00000,-0.00354,0.00000,0.00000,1.01904,-0.01440,-0.05249
564.53394,138.41,0.00000,110.71673,0.00000,-0.02042,0.00000,-0.00408,0.00000,-0.00354,0.00000,0.00000,1.02637,-0.00269,-0.05811
661.70282,138.41,0.00000,110.72342,0.01668,-0.02042,0.00000,-0.00408,-0.00016,-0.00354,-0.00016,0.00000,1.02319,-0.00757,-0.07520
709.76550,138.41,0.22523,110.90409,0.22523,-0.02042,0.00000,-0.00410,-0.00213,-0.00355,-0.00211,0.00000,1.00806,-0.01611,-0.07324
715.52448,138.41,1.13451,112.29591,1.13451,-0.02199,0.00000,-0.00427,-0.01065,-0.00373,-0.01236,0.00804,1.02319,0.00464,-0.09204
650.61633,138.41,1.19290,114.20632,1.19290,-0.02199,0.00000,-0.00450,-0.01103,-0.00408,-0.01091,0.00000,1.02612,0.00488,-0.05908
575.24670,138.41,0.25860,114.79517,-0.00834,-0.02199,0.00000,-0.00461,0.00008,-0.00419,0.00008,0.00000,1.00781,-0.01196,-0.06250
617.18768,138.41,0.00000,114.79517,0.00000,-0.02356,-0.22440,-0.00448,0.01885,-0.00419,0.00000,-0.00804,1.00684,-0.00195,-0.07324
658.61713,138.41,0.00834,114.80855,0.00834,-0.02356,0.00000,-0.00448,-0.00008,-0.00420,-0.00008,0.00000,1.02124,0.00439,-0.06396
699.00189,138.41,0.57560,115.43086,0.57560,-0.02356,0.00000,-0.00454,-0.00527,-0.00425,-0.00875,0.00000,1.04858,-0.01416,-0.05566
568.24213,84.19,1.28467,116.92974,1.28467,-0.02513,0.00000,-0.00477,0.01048,-0.00453,-0.00827,0.00804,1.03076,0.00708,-0.08325
445.57025,84.19,-0.14181,117.10037,-0.14181,-0.02513,0.00000,-0.00472,0.00128,-0.00456,0.00126,0.00000,0.98022,0.01611,-0.07715
399.46484,84.19,-0.35036,116.73569,-0.35036,-0.02513,0.00000,-0.00467,0.00316,-0.00451,0.00313,0.00000,0.98755,-0.00635,-0.05396
375.55130,84.19,-0.45047,116.11673,-0.45047,-0.02513,0.00000,-0.00457,0.00409,-0.00441,0.00404,0.00000,1.02490,-0.00854,-0.08350
359.44510,84.19,-0.25026,115.77881,-0.25026,-0.02513,0.00000,-0.00452,0.00228,-0.00436,0.00225,0.00000,1.02124,0.01099,-0.06812
301.38416,84.19,-0.34202,115.24349,-0.53389,-0.02513,0.00000,-0.00443,0.00488,-0.00427,0.00482,0.00000,1.02417,-0.00415,-0.06934
305.40466,84.19,-0.60897,114.40706,-0.60897,-0.02513,0.00000,-0.00430,0.00560,-0.00415,0.00554,0.00000,1.02246,-0.00854,-0.05518
321.44864,84.19,-0.94264,113.21933,-0.94264,-0.02513,0.00000,-0.00414,0.00872,-0.00399,0.00789,0.00000,1.02490,0.01050,-0.05981
347.92966,84.19,-1.00104,111.88439,-1.00104,-0.02513,0.00000,-0.00390,0.00936,-0.00375,0.00927,0.00000,1.01758,-0.00195,-0.06812
384.52542,84.19,-0.97601,110.65985,-0.97601,-0.02513,0.00000,-0.00371,0.00927,-0.00356,0.00919,0.00000,1.01831,-0.00244,-0.06055
418.63177,84.19,-0.55057,109.85019,-0.56726,-0.02513,0.00000,-0.00354,0.00538,-0.00339,0.00533,0.00000,1.01807,0.00732,-0.06396
417.61536,84.19,-0.06674,109.41524,-0.06674,-0.02513,0.00000,-0.00347,0.00063,-0.00332,0.00063,0.00000,1.01978,0.00391,-0.05933
372.84506,84.19,0.00000,109.41524,0.00000,-0.02513,0.00000,-0.00347,0.00000,-0.00332,0.00000,0.00000,1.01904,-0.00513,-0.07007
328.58551,84.19,0.00000,109.41524,0.00000,-0.02513,0.00000,-0.00347,0.00000,-0.00332,0.00000,0.00000,1.01953,0.00391,-0.06592
284.32593,84.19,0.00000,109.41524,0.00000,-0.02513,0.00000,-0.00347,0.00000,-0.00332,0.00000,0.00000,1.01636,0.00122,-0.06860
195.80682,84.19,0.00000,109.41524,0.00000,-0.02513,0.00000,-0.00347,0.00000,-0.00332,0.00000,0.00000,1.02222,0.00122,-0.05957
151.80826,84.19,0.00000,109.41190,0.00000,-0.02513,0.00000,-0.00347,0.00000,-0.00332,0.00000,0.00000,1.02295,0.01709,-0.06763
59.98873,57.07,0.00000,109.41190,0.00000,-0.02513,0.00000,-0.00347,0.00000,-0.00332,0.00000,0.00000,1.01733,0.00684,-0.07349
-31.83080,57.07,-0.00834,109.40855,-0.00834,-0.02513,0.00000,-0.00347,0.00008,-0.00332,0.00008,0.00000,1.02075,0.00757,-0.07202
-123.38944,57.07,-0.02503,109.36506,-0.06674,-0.02513,0.00000,-0.00346,0.00063,-0.00332,0.00063,0.00000,1.01953,0.00854,-0.06396
-264.90353,57.07,-0.68404,108.76952,-0.68404,-0.02513,0.00000,-0.00338,0.00644,-0.00324,0.00639,0.00000,1.00635,0.00464,-0.07373
-226.54691,57.07,-1.81021,106.45428,-1.81021,-0.02513,0.00000,-0.00295,0.02085,-0.00280,0.02069,0.00000,1.00098,0.01880,-0.05127
-101.22375,57.07,-3.15327,101.70335,-3.15327,-0.02513,0.00000,-0.00223,0.02325,-0.00209,0.02312,0.00000,1.01245,0.01196,-0.10010
67.27165,57.07,-3.78726,97.04944,-3.78726,-0.02513,0.00000,-0.00148,0.03750,-0.00135,0.03737,0.00000,1.02270,0.00342,-0.01855
586.65936,57.07,-3.68716,91.85688,-3.68716,-0.02513,0.00000,-0.00041,0.03470,-0.00028,0.03467,0.00000,1.02783,-0.00586,-0.08862
772.93677,57.07,-1.31803,89.01970,-1.31803,-0.02513,0.00000,0.00003,0.01317,0.00017,0.01318,0.00000,1.00903,0.02075,-0.10767
698.78613,57.07,1.96037,90.87658,1.96037,-0.02513,0.00000,-0.00024,-0.01968,-0.00010,-0.01969,0.00000,1.01440,0.00635,-0.00952
454.03723,57.07,1.83524,93.57323,1.30969,-0.02513,0.00000,-0.00077,-0.01309,-0.00063,-0.01307,0.00000,1.02441,-0.00244,-0.09448
261.46326,57.07,-0.45881,93.64684,-0.45881,-0.02513,0.00000,-0.00077,0.00467,-0.00064,0.00466,0.00000,1.02783,0.03711,-0.01782
217.09920,57.07,-0.67570,92.55279,-0.67570,-0.02513,0.00000,-0.00063,0.00675,-0.00044,0.00808,0.00000,1.03345,-0.03223,-0.06934
240.40991,57.07,-1.03441,91.28476,-1.03441,-0.02513,0.00000,-0.00036,0.01034,-0.00023,0.01034,0.00000,1.00586,0.00781,-0.05225
281.83813,57.07,-1.15119,89.81264,-1.15119,-0.02513,0.00000,-0.00012,0.01151,0.00002,0.01151,0.00000,1.03320,0.01758,-0.05273
333.13159,57.07,-1.20959,88.31375,-1.20959,-0.02513,0.00000,0.00009,0.00408,0.00022,0.00409,0.00000,1.01758,-0.00732,-0.06152
361.56674,57.07,-1.15119,86.81822,-1.15119,-0.02513,0.00000,0.00042,0.01139,0.00055,0.01141,0.00000,1.01611,-0.00928,-0.04932
382.47522,43.52,-0.80083,85.67398,-0.80083,-0.02513,0.00000,0.00060,0.00805,0.00074,0.00807,0.00000,1.01587,0.01855,-0.05859
355.75693,43.52,-0.40042,84.93457,-0.40042,-0.02513,0.00000,0.00073,0.00398,0.00088,0.00332,0.00000,0.99731,0.00098,-0.06787
312.46057,43.52,-0.37539,84.39591,-0.37539,-0.02513,0.00000,0.00082,0.00373,0.00096,0.00374,0.00000,1.01685,-0.00562,-0.06006
279.74951,43.52,-0.30031,83.95428,-0.30031,-0.02513,0.00000,0.00091,0.00298,0.00104,0.00299,0.00000,1.02051,0.01538,-0.06396
223.64507,43.52,0.00000,83.93420,0.00000,-0.02513,0.00000,0.00092,0.00000,0.00106,0.00000,0.00000,1.01172,0.00708,-0.07666
152.73984,43.52,0.00000,83.93420,0.00000,-0.02513,0.00000,0.00092,0.00000,0.00106,0.00000,0.00000,1.02319,0.00146,-0.06323
12.23436,43.52,-0.01668,83.91078,-0.03337,-0.02513,0.00000,0.00092,0.00033,0.00106,0.00033,0.00000,1.01807,0.00415,-0.07202
-47.93767,43.52,-0.30031,83.58290,-0.30031,-0.02513,0.00000,0.00096,0.00306,0.00110,0.00307,0.00000,1.01416,0.00757,-0.07129
-69.49374,43.52,-0.97601,82.42193,-0.97601,-0.02513,0.00000,0.00111,0.00974,0.00133,0.01100,0.00000,1.03296,-0.00269,-0.04834
-37.99543,43.52,-1.60166,80.60855,-1.60166,-0.02513,0.00000,0.00149,0.01574,0.00163,0.01582,0.00000,1.01123,-0.00659,-0.06934
40.41620,43.52,-2.02710,78.08253,-2.02710,-0.02513,0.00000,0.00188,0.01985,0.00202,0.01996,0.00000,1.01709,0.01367,-0.05493
155.51874,43.52,-2.36078,75.03123,-2.36078,-0.02513,0.00000,0.00234,0.02276,0.00248,0.02292,0.00000,1.01392,0.00024,-0.07373
222.23212,43.52,2.29405,76.68067,2.29405,-0.02513,0.00000,0.00225,-0.02216,0.00239,-0.02231,0.00000,1.01929,0.00317,-0.04053
19.37987,43.52,-0.00834,77.67435,-0.00834,-0.02513,0.00000,0.00199,0.00008,0.00213,0.00008,0.00000,1.02539,0.00195,-0.10913
-39.78698,43.52,-0.46715,77.21264,-0.46715,-0.02513,0.00000,0.00207,0.00453,0.00221,0.00456,0.00000,1.00635,0.00977,-0.02393
-52.21254,43.52,-1.21793,75.90781,-1.21793,-0.02513,0.00000,0.00226,0.01176,0.00241,0.01183,0.00000,1.02905,-0.00586,-0.05566
-6.66387,36.74,-1.62669,73.71636,-1.62669,-0.02513,0.00000,0.00256,0.01557,0.00271,0.01568,0.00000,1.01562,0.01660,-0.06274
183.71564,36.74,-2.12721,70.57472,-2.12721,-0.02513,0.00000,0.00309,0.02008,0.00324,0.02026,0.00000,1.01099,0.00562,-0.08740
322.27478,36.74,-2.20228,67.64721,-2.20228,-0.02513,0.00000,0.00353,0.00054,0.00381,0.01957,0.00804,0.99609,0.00464,-0.10474
445.21686,36.74,-1.20959,65.62305,-1.20959,-0.02356,0.00000,0.00383,0.01092,0.00412,0.01104,0.00000,1.03027,0.01392,-0.03735
496.22205,36.74,0.05005,65.18141,0.05005,-0.02356,0.00000,0.00391,-0.00045,0.00420,-0.00045,0.00000,1.02393,-0.01392,-0.05566
446.69339,36.74,0.20021,65.46580,0.20021,-0.02356,0.00000,0.00386,-0.00180,0.00415,-0.00182,0.00000,1.01685,-0.00757,-0.07812
380.73001,36.74,0.00000,65.46580,0.00000,-0.02356,0.00000,0.00386,0.00000,0.00415,0.00000,0.00000,1.02124,0.01196,-0.06299
280.19696,36.74,0.00000,65.46245,0.00000,-0.02356,0.00000,0.00386,0.00000,0.00415,0.00000,0.00000,1.02148,-0.00684,-0.06494
229.80598,36.74,0.00000,65.45911,-0.00834,-0.02356,0.00000,0.00386,0.00008,0.00415,0.00008,0.00000,1.02197,0.00806,-0.06152
179.67596,36.74,-0.00834,65.45242,-0.00834,-0.02356,0.00000,0.00386,0.00007,0.00415,0.00008,0.00000,1.02148,0.00781,-0.06812
80.48395,36.74,-0.00834,65.43569,-0.00834,-0.02356,0.00000,0.00387,0.00008,0.00416,0.00008,0.00000,1.01343,-0.00439,-0.06128
31.43910,36.74,-0.00834,65.42230,0.00000,-0.02356,0.00000,0.00387,0.00000,0.00416,0.00000,0.00000,1.01367,0.00317,-0.06885
-18.62075,36.74,-0.00834,65.41561,-0.00834,-0.02356,0.00000,0.00387,0.00007,0.00416,0.00008,0.00000,1.02173,0.00928,-0.06885
-68.67363,36.74,-0.00834,65.40892,-0.00834,-0.02356,0.00000,0.00387,0.00008,0.00416,0.00008,0.00000,1.01147,0.00708,-0.06665
-118.19967,36.74,-0.02503,65.38885,-0.02503,-0.02356,0.00000,0.00387,0.00022,0.00416,0.00023,0.00000,1.03296,0.00464,-0.06104
-166.40218,36.74,-0.05005,65.33197,-0.05005,-0.02356,0.00000,0.00388,0.00045,0.00417,0.00045,0.00000,1.02246,0.00586,-0.06934
-259.74881,36.74,-0.02503,65.28178,-0.02503,-0.02356,0.00000,0.00389,0.00023,0.00418,0.00023,0.00000,1.01050,0.00122,-0.07739
-311.86401,33.35,-0.05005,65.20818,-0.05005,-0.02356,0.00000,0.00390,0.00045,0.00419,0.00091,0.00000,1.01636,0.00000,-0.07031
-353.70966,33.35,-0.45881,64.60929,-0.45881,-0.02199,0.00000,0.00396,0.00411,0.00425,0.00709,0.00804,1.00732,0.00732,-0.07739
-268.06076,33.35,-1.60166,62.02974,-1.89363,-0.02042,0.00000,0.00411,-0.00233,0.00467,0.01680,0.00804,0.98560,0.01099,-0.05859
-155.08368,33.35,-2.36912,59.49703,-2.36912,-0.01885,0.22440,0.00433,0.00133,0.00503,0.02058,0.00804,0.95264,-0.00488,-0.04956
15.36365,33.35,-2.49425,56.24833,-2.49425,-0.01571,0.22440,0.00450,0.00156,0.00547,0.02093,-0.00000,0.95654,0.00610,-0.01758
193.32285,33.35,-2.22731,52.91264,-2.22731,-0.01257,0.00000,0.00476,0.01750,0.00601,0.01783,-0.00804,1.05078,0.01343,-0.07397
351.70172,33.35,-1.41814,50.79145,-1.41814,-0.00942,0.22440,0.00478,-0.00836,0.00630,0.01106,0.00804,1.10278,0.02954,-0.06592
456.07010,33.35,-0.15016,50.17584,-0.15016,-0.00785,0.22440,0.00475,-0.00094,0.00640,-0.00096,-0.00804,1.06714,-0.01611,-0.04834
391.33063,33.35,0.64233,50.92862,0.64233,-0.00785,0.00000,0.00464,-0.00392,0.00630,-0.00401,0.00000,1.01123,0.00562,-0.06934
322.66617,33.35,-0.00834,51.12602,-0.00834,-0.00785,0.00000,0.00462,0.00006,0.00628,0.00006,0.00000,1.02075,0.01440,-0.07690
289.94873,33.35,0.00000,51.12602,0.00000,-0.00785,0.00000,0.00462,0.00000,0.00628,0.00000,0.00000,1.01807,0.00171,-0.06323
258.76233,33.35,0.00000,51.12602,0.00000,-0.00785,0.00000,0.00462,0.00000,0.00628,0.00000,0.00000,1.01758,-0.00024,-0.07446
196.65062,33.35,0.00000,51.12268,0.00000,-0.00785,0.00000,0.00462,0.00000,0.00628,0.00000,0.00000,1.02441,0.01440,-0.07788
166.51408,33.35,-0.01668,51.10595,-0.01668,-0.00785,0.00000,0.00462,0.00013,0.00628,0.00013,0.00000,1.02563,0.00684,-0.05786
139.27290,33.35,-0.08342,50.98216,-0.14181,-0.00785,0.00000,0.00464,0.00108,0.00630,0.00110,0.00000,1.01953,0.00293,-0.06055
124.91172,33.35,-0.35871,50.54052,-0.35871,-0.00785,0.00000,0.00469,0.00271,0.00635,0.00278,0.00000,1.00806,0.01392,-0.07642
120.84656,33.35,0.00000,50.50706,0.00000,-0.00785,0.00000,0.00470,-0.00006,0.00636,-0.00006,0.00000,1.01245,0.00391,-0.06836
54.70649,31.65,-0.00834,50.50706,-0.00834,-0.00785,0.00000,0.00470,0.00006,0.00636,0.00006,0.00000,1.02270,-0.00220,-0.07324
21.37832,31.65,0.00000,50.50706,0.00000,-0.00785,0.00000,0.00470,0.00000,0.00636,0.00000,0.00000,1.02930,0.00537,-0.07080
-44.76775,31.65,0.00000,50.50706,0.00000,-0.00785,0.00000,0.00470,0.00000,0.00636,0.00000,0.00000,1.02222,-0.00049,-0.06812
-77.84078,31.65,0.00000,50.50706,0.00000,-0.00785,0.00000,0.00470,0.00000,0.00636,0.00000,0.00000,1.01660,0.00854,-0.06860
-110.91382,31.65,-0.00834,50.50372,-0.00834,-0.00785,0.00000,0.00470,0.00006,0.00636,0.00006,0.00000,1.02124,0.01514,-0.07324
-143.72572,31.65,0.00000,50.50372,0.00000,-0.00785,0.00000,0.00470,0.00000,0.00636,0.00000,0.00000,1.02588,0.00342,-0.05933
-176.79277,31.65,0.00000,50.50372,0.00000,-0.00785,0.00000,0.00470,0.00000,0.00636,0.00000,0.00000,1.00488,0.00586,-0.06665
-242.92685,31.65,0.00000,50.50372,0.00000,-0.00785,0.00000,0.00470,0.00000,0.00636,0.00000,0.00000,1.01514,0.00708,-0.07007
-275.99390,31.65,0.00000,50.50037,-0.00834,-0.00785,0.00000,0.00470,0.00006,0.00636,0.00006,0.00000,1.02148,-0.00464,-0.06299
-308.79977,31.65,0.00000,50.50037,0.00000,-0.00785,0.00000,0.00470,0.00000,0.00636,0.00000,0.00000,1.02319,0.00122,-0.05762
-341.86124,31.65,-0.00834,50.48364,-0.00834,-0.00785,0.00000,0.00470,0.00007,0.00636,0.00006,0.00000,1.01929,0.00317,-0.06104
-398.81784,31.65,-0.14181,50.28625,-0.23358,-0.00785,0.00000,0.00473,0.00176,0.00639,0.00180,0.00000,1.01440,-0.00366,-0.06396
-393.55887,31.65,-1.09280,49.05167,-1.09280,-0.00785,0.00000,0.00485,0.00820,0.00651,0.00838,0.00000,1.00732,-0.00488,-0.08081
-311.47437,31.65,-1.84358,47.12788,-1.84358,-0.00785,0.00000,0.00506,0.01342,0.00683,0.01485,0.00804,0.97754,0.00610,-0.05591
-23.99819,31.65,-2.20228,43.80223,-2.20228,-0.00471,0.22440,0.00520,-0.00421,0.00715,0.01551,0.00804,0.96973,-0.00830,-0.06738
246.84392,90.83,-2.02710,41.04535,-2.02710,-0.00314,0.22440,0.00537,0.01256,0.00755,0.01290,-0.00804,1.01953,0.01025,-0.07593
481.20428,90.83,-0.97601,39.20520,-0.97601,-0.00157,0.00000,0.00550,0.00267,0.00775,0.00275,0.00000,1.04297,0.00000,-0.05640
612.11859,90.83,0.80917,39.70706,0.80917,0.00000,0.00000,0.00533,-0.00500,0.00770,-0.00515,0.00000,1.09106,-0.02271,-0.05225
634.31439,90.83,1.92700,42.13271,1.92700,0.00000,0.00000,0.00511,-0.01233,0.00748,-0.01270,0.00000,1.01025,0.00415,-0.06274
430.51633,90.83,2.46923,45.73941,2.56099,-0.00157,0.00000,0.00480,-0.01761,0.00702,-0.01809,0.00000,1.03516,-0.00293,-0.06543
302.21863,90.83,2.01876,48.45948,2.01876,-0.00314,0.00000,0.00447,-0.01456,0.00668,-0.01493,0.00000,1.01221,-0.01562,-0.08911
235.79665,90.83,1.02606,49.91152,1.02606,-0.00314,0.00000,0.00440,-0.00768,0.00646,-0.00787,0.00000,1.00854,-0.00610,-0.06348
261.72397,90.83,-0.13347,49.86803,-0.23358,-0.00314,0.00000,0.00438,0.00174,0.00645,0.00179,0.00000,1.01440,0.01196,-0.06567
354.21545,90.83,-0.16684,49.53011,-0.16684,-0.00314,0.00000,0.00442,0.00124,0.00649,0.00127,0.00000,1.00977,-0.00659,-0.05859
442.73840,90.83,0.05839,49.58699,0.05839,-0.00314,0.00000,0.00442,-0.00043,0.00648,-0.00044,0.00000,1.02002,-0.01392,-0.07275
511.00739,90.83,0.07508,49.65390,0.07508,-0.00314,0.00000,0.00441,-0.00056,0.00648,-0.00057,0.00000,1.02295,0.00122,-0.07446
638.89215,90.83,0.15016,49.83457,0.15016,-0.00314,0.00000,0.00439,-0.00112,0.00646,-0.00115,0.00000,1.01929,0.00000,-0.06641
684.24023,90.83,0.66736,50.39331,0.66736,-0.00314,0.00000,0.00431,-0.00501,0.00638,-0.00513,0.00000,1.02100,-0.01392,-0.06812
645.97198,90.83,1.87695,52.40743,1.87695,-0.00471,-0.22440,0.00420,0.00484,0.00612,-0.01477,0.00804,1.05029,0.00635,-0.06860
535.01379,90.83,2.06047,55.24126,2.06047,-0.00628,0.00000,0.00385,-0.01645,0.00577,-0.01681,0.00000,1.05127,0.00098,-0.07544
428.10388,90.83,1.47653,57.22528,1.47653,-0.00628,0.00000,0.00364,-0.00913,0.00541,-0.00931,0.00000,0.99145,0.00415,-0.06226
379.20410,90.83,0.30865,57.95130,0.30865,-0.00785,0.00000,0.00367,-0.00257,0.00531,-0.00261,0.00000,0.98511,-0.01611,-0.04907
408.35251,60.40,-0.02503,57.89777,0.00000,-0.00785,0.00000,0.00368,0.00000,0.00531,0.00000,0.00000,1.03735,0.00073,-0.06543
412.73648,60.40,0.00000,57.89777,0.00000,-0.00785,0.00000,0.00368,0.00000,0.00531,0.00000,0.00000,1.01318,0.01367,-0.06372
417.12048,60.40,0.00000,57.89777,0.00000,-0.00785,0.00000,0.00368,0.00000,0.00531,0.00000,0.00000,1.02197,-0.01343,-0.07544
421.50446,60.40,0.00000,57.89777,0.00000,-0.00785,0.00000,0.00368,0.00000,0.00531,0.00000,0.00000,1.02173,-0.00342,-0.05518
425.88843,60.40,0.00000,57.89777,0.00000,-0.00785,0.00000,0.00368,0.00000,0.00531,0.00000,0.00000,1.02808,0.00708,-0.07153
430.27243,60.40,0.00000,57.89777,0.00000,-0.00785,0.00000,0.00368,0.00000,0.00531,0.00000,0.00000,1.01904,-0.00342,-0.06274
434.65640,60.40,0.00000,57.89777,0.00000,-0.00785,0.00000,0.00368,0.00000,0.00531,0.00000,0.00000,1.01514,-0.01147,-0.06250
443.42438,60.40,0.00000,57.89777,0.00000,-0.00785,0.00000,0.00368,0.00000,0.00531,0.00000,0.00000,1.01953,0.00732,-0.06128
447.80835,60.40,0.00000,57.89777,0.00000,-0.00785,0.00000,0.00368,0.00000,0.00531,0.00000,0.00000,1.02270,-0.00952,-0.06567
456.57632,60.40,0.00834,57.90112,0.00834,-0.00785,0.00000,0.00368,-0.00007,0.00531,-0.00007,0.00000,1.02124,-0.01050,-0.07471
460.69894,60.40,-0.00834,57.89777,-0.00834,-0.00785,0.00000,0.00368,0.00007,0.00531,0.00007,0.00000,1.02295,0.00513,-0.06519
465.07693,60.40,0.00834,57.90112,0.00834,-0.00785,0.00000,0.00368,-0.00007,0.00531,-0.00007,0.00000,1.01733,-0.00586,-0.06470
469.45493,60.40,0.00000,57.90112,0.00000,-0.00785,0.00000,0.00368,0.00000,0.00531,0.00000,0.00000,1.01953,-0.00806,-0.06104
473.83292,60.40,0.00000,57.90112,0.00000,-0.00785,0.00000,0.00368,0.00000,0.00531,0.00000,0.00000,1.02417,0.00684,-0.06396
478.21088,60.40,0.00000,57.90112,0.00000,-0.00785,0.00000,0.00368,0.00000,0.00531,0.00000,0.00000,1.01074,-0.00342,-0.07129
482.58887,60.40,0.00000,57.90112,0.00000,-0.00785,0.00000,0.00368,0.00000,0.00531,0.00000,0.00000,1.01343,-0.00293,-0.07300
491.34485,60.40,0.00000,57.90112,0.00000,-0.00785,0.00000,0.00368,0.00000,0.00531,0.00000,0.00000,1.01831,-0.00073,-0.07031
574.32874,105.20,0.00834,57.90446,0.00834,-0.00785,0.00000,0.00368,-0.00007,0.00531,-0.00007,0.00000,1.02100,-0.00171,-0.06128
657.05176,105.20,0.28363,58.13532,0.28363,-0.00785,0.00000,0.00365,-0.00236,0.00529,-0.00241,0.00000,1.01660,-0.01245,-0.06250
693.92841,105.20,1.85192,60.03234,1.85192,-0.00785,0.00000,0.00344,-0.01561,0.00507,-0.01590,0.00000,1.03833,-0.00928,-0.05518
580.04449,105.20,2.66109,63.11710,2.66109,-0.00942,0.00000,0.00302,-0.02283,0.00451,-0.02319,0.00000,1.01221,-0.00415,-0.05713
436.21573,105.20,1.88529,66.27881,1.88529,-0.00942,0.00000,0.00261,-0.01690,0.00410,-0.01715,0.00000,1.01489,-0.00537,-0.02295
367.07376,105.20,0.60897,67.09517,0.19187,-0.00942,0.00000,0.00241,-0.00174,0.00389,-0.00177,0.00000,1.01733,0.00610,-0.09937
400.25558,105.20,0.00000,67.08178,0.00000,-0.00942,0.00000,0.00241,0.00000,0.00389,0.00000,0.00000,1.01685,0.02075,-0.05933
534.52234,105.20,0.00000,67.08178,0.00000,-0.00942,0.00000,0.00241,0.00000,0.00389,0.00000,0.00000,1.00586,-0.01514,-0.06226
601.40076,105.20,0.00000,67.08513,0.00000,-0.00942,0.00000,0.00241,0.00000,0.00389,0.00000,0.00000,1.02344,-0.01636,-0.05957
668.01831,105.20,0.06674,67.11190,0.06674,-0.00942,0.00000,0.00241,-0.00061,0.00389,-0.00061,0.00000,1.02002,0.00562,-0.07446
724.18719,105.20,0.39207,67.40297,0.39207,-0.00942,0.00000,0.00236,-0.00357,0.00384,-0.00362,0.00000,1.01392,-0.01245,-0.07397
729.46960,105.20,1.85192,69.36691,1.85192,-0.00942,0.00000,0.00211,-0.01702,0.00359,-0.01724,0.00000,1.00073,-0.00195,-0.07397
611.19623,105.20,2.41083,72.57546,2.41083,-0.00942,0.00000,0.00164,-0.02107,0.00296,-0.02130,0.00000,1.02515,0.01489,-0.06787
388.60275,105.20,1.16788,74.84052,1.16788,-0.00942,0.00000,0.00118,-0.01114,0.00265,-0.01125,0.00000,1.01709,-0.00293,-0.05078
418.32544,105.20,-0.01668,75.02454,0.00000,-0.00942,0.00000,0.00112,0.00000,0.00258,0.00000,0.00000,1.02588,-0.01001,-0.05371
471.26990,105.20,0.00000,75.02454,0.00000,-0.00942,0.00000,0.00112,0.00000,0.00258,0.00000,0.00000,1.02075,0.00366,-0.05981
511.15662,67.58,0.00000,75.02454,0.00000,-0.00942,0.00000,0.00112,0.00000,0.00258,0.00000,0.00000,1.01611,-0.01147,-0.05591
498.09888,67.58,0.00000,75.02454,0.00000,-0.00942,0.00000,0.00112,0.00000,0.00258,0.00000,0.00000,1.01709,0.00415,-0.07349
485.04114,67.58,0.00000,75.02454,0.00000,-0.00942,0.00000,0.00112,0.00000,0.00258,0.00000,0.00000,1.01904,0.00562,-0.06689
471.98343,67.58,0.00000,75.02454,0.00000,-0.00942,0.00000,0.00112,0.00000,0.00258,0.00000,0.00000,1.01733,-0.00562,-0.06177
458.92569,67.58,0.00000,75.02454,0.00000,-0.00942,0.00000,0.00112,0.00000,0.00258,0.00000,0.00000,1.01465,-0.00659,-0.05664
432.81024,67.58,0.00000,75.02454,0.00000,-0.00942,0.00000,0.00112,0.00000,0.00258,0.00000,0.00000,1.02319,0.00757,-0.07129
419.75253,67.58,0.00000,75.02454,0.00000,-0.00942,0.00000,0.00112,0.00000,0.00258,0.00000,0.00000,1.01416,-0.00537,-0.06763
406.69479,67.58,0.00000,75.02454,0.00000,-0.00942,0.00000,0.00112,0.00000,0.00258,0.00000,0.00000,1.02441,-0.00415,-0.06348
393.63705,67.58,0.00000,75.02454,0.00000,-0.00942,0.00000,0.00112,0.00000,0.00258,0.00000,0.00000,1.01587,0.00732,-0.06250
380.57935,67.58,0.00000,75.02454,0.00000,-0.00942,0.00000,0.00112,0.00000,0.00258,0.00000,0.00000,1.02588,-0.00244,-0.06860
367.52161,67.58,0.00000,75.02454,0.00000,-0.00942,0.00000,0.00112,0.00000,0.00258,0.00000,0.00000,1.01221,-0.00049,-0.06152
341.40616,67.58,0.00000,75.02454,0.00000,-0.00942,0.00000,0.00112,0.00000,0.00258,0.00000,0.00000,1.03052,0.00415,-0.06152
328.34842,67.58,0.00000,75.02454,0.00000,-0.00942,0.00000,0.00112,0.00000,0.00258,0.00000,0.00000,1.01440,0.00171,-0.06689
315.29071,67.58,0.00000,75.02454,0.00000,-0.00942,0.00000,0.00112,0.00000,0.00258,0.00000,0.00000,1.01660,-0.00244,-0.07031
302.23297,67.58,0.00000,75.02454,0.00000,-0.00942,0.00000,0.00112,0.00000,0.00258,0.00000,0.00000,1.01855,0.00635,-0.05322
289.17526,67.58,0.00000,75.02454,0.00000,-0.00942,0.00000,0.00112,0.00000,0.00258,0.00000,0.00000,1.01562,-0.00073,-0.07593
263.05981,67.58,0.00000,75.02454,0.00000,-0.00942,0.00000,0.00112,0.00000,0.00258,0.00000,0.00000,1.02588,-0.00439,-0.06104
322.30612,108.80,0.00000,75.02454,0.00000,-0.00942,0.00000,0.00112,0.00000,0.00258,0.00000,0.00000,1.01855,0.00195,-0.07593
381.55243,108.80,0.00000,75.02454,0.00000,-0.00942,0.00000,0.00112,0.00000,0.00258,0.00000,0.00000,1.02075,0.00317,-0.06836
440.79874,108.80,0.00000,75.02454,0.00000,-0.00942,0.00000,0.00112,0.00000,0.00258,0.00000,0.00000,1.01758,0.00244,-0.06592
559.29132,108.80,0.00000,75.02788,0.00834,-0.00942,0.00000,0.00112,-0.00008,0.00258,-0.00008,0.00000,1.01880,-0.00757,-0.06152
618.27722,108.80,0.00000,75.03123,0.00000,-0.00942,0.00000,0.00112,0.00000,0.00258,0.00000,0.00000,1.01782,-0.00708,-0.06250
698.37646,108.80,0.66736,75.49628,0.66736,-0.00942,0.00000,0.00102,0.00040,0.00249,0.00040,0.00000,1.01831,0.00488,-0.05786
692.79401,108.80,1.58498,78.04907,1.83524,-0.00942,0.00000,0.00063,-0.01770,0.00209,-0.01784,0.00000,1.00732,-0.01343,-0.08545
597.01324,108.80,1.40145,80.30409,1.40145,-0.00942,0.00000,0.00029,-0.01370,0.00175,-0.01379,0.00000,1.02393,0.01709,-0.02734
507.14926,108.80,-0.06674,80.74572,-0.06674,-0.00942,0.00000,0.00015,0.00065,0.00161,0.00066,0.00000,1.02124,-0.00708,-0.09424
560.73853,108.80,0.00000,80.72230,0.00000,-0.00942,0.00000,0.00015,0.00000,0.00161,0.00000,0.00000,1.02539,-0.00293,-0.05078
609.98938,108.80,0.00000,80.72230,0.00000,-0.00942,0.00000,0.00015,0.00000,0.00161,0.00000,0.00000,1.01709,-0.01709,-0.07617
659.24023,108.80,0.00000,80.72565,0.00000,-0.00942,0.00000,0.00015,0.00000,0.00161,0.00000,0.00000,1.03223,-0.00781,-0.06323
731.10828,108.80,0.36705,81.19071,0.36705,-0.00942,0.00000,0.00011,-0.00360,0.00157,-0.00692,0.00000,1.02368,-0.00635,-0.07324
656.01770,108.80,1.92700,83.52602,1.92700,-0.00942,0.00000,-0.00027,-0.01910,0.00119,-0.01920,0.00000,0.99805,-0.01270,-0.08789
539.24744,108.80,1.53493,85.59703,1.53493,-0.00942,0.00000,-0.00062,-0.01144,0.00075,-0.01148,0.00000,1.02002,0.00122,-0.05469
478.07962,108.80,-0.05839,86.15911,-0.05839,-0.00942,0.00000,-0.00079,0.00058,0.00066,0.00058,0.00000,1.01343,-0.00415,-0.08130
444.11890,69.38,-0.24192,85.87138,-0.24192,-0.00942,0.00000,-0.00074,0.00240,0.00071,0.00241,0.00000,1.01904,0.00122,-0.07690
405.13681,69.38,0.00834,85.87138,-0.00834,-0.00942,0.00000,-0.00073,0.00008,0.00072,0.00008,0.00000,1.02808,0.00562,-0.05469
375.94275,69.38,0.00834,85.87472,0.00834,-0.00942,0.00000,-0.00074,-0.00008,0.00072,-0.00008,0.00000,1.02026,-0.00464,-0.07837
347.26447,69.38,-0.00834,85.87138,-0.00834,-0.00942,0.00000,-0.00073,0.00008,0.00072,0.00008,0.00000,1.02490,0.00391,-0.05591
318.33130,69.38,0.00000,85.87138,0.00000,-0.00942,0.00000,-0.00073,0.00000,0.00072,0.00000,0.00000,1.03247,0.00024,-0.07300
289.39810,69.38,0.00000,85.87138,0.00000,-0.00942,0.00000,-0.00073,0.00000,0.00072,0.00000,0.00000,1.02417,0.00781,-0.05273
260.46494,69.38,0.00000,85.87138,0.00000,-0.00942,0.00000,-0.00073,0.00000,0.00072,0.00000,0.00000,1.01904,-0.00513,-0.06470
231.53175,69.38,0.00000,85.87138,0.00000,-0.00942,0.00000,-0.00073,0.00000,0.00072,0.00000,0.00000,1.01709,0.00684,-0.06201
173.92677,69.38,0.00000,85.86468,0.00000,-0.00942,0.00000,-0.00073,0.00000,0.00072,0.00000,0.00000,1.03003,0.00659,-0.05664
146.04323,69.38,-0.01668,85.84461,-0.01668,-0.00942,0.00000,-0.00073,0.00016,0.00072,0.00017,0.00000,1.01318,0.00537,-0.07129
119.48916,69.38,-0.04171,85.79108,-0.04171,-0.00942,0.00000,-0.00072,0.00042,0.00073,0.00042,0.00000,1.01221,0.00732,-0.08374
94.29320,69.38,-0.04171,85.73420,-0.04171,-0.00942,0.00000,-0.00071,0.00042,0.00074,0.00042,0.00000,1.03125,0.00513,-0.06396
69.43992,69.38,-0.06674,85.64052,-0.09176,-0.00942,0.00000,-0.00069,0.00091,0.00076,0.00091,0.00000,1.02539,0.00415,-0.06763
41.97379,69.38,-0.51720,85.24238,-0.51720,-0.00942,0.00000,-0.00063,0.00514,0.00083,0.00516,0.00000,1.01318,0.00293,-0.07178
99.85104,69.38,-1.24296,83.53271,-1.24296,-0.00942,0.00000,-0.00031,0.01412,0.00115,0.01418,0.00000,1.03027,0.00586,-0.05005
207.17242,69.38,-1.81855,80.48476,-1.86026,-0.00942,0.00000,0.00017,0.01826,0.00163,0.01837,0.00000,1.01147,0.01147,-0.05981
448.58502,49.67,-1.66840,78.28662,-1.66840,-0.00942,0.00000,0.00053,0.01625,0.00200,0.01637,0.00000,1.03223,-0.00098,-0.09888
509.82187,49.67,-0.95099,76.70743,-0.71741,-0.00942,0.00000,0.00084,0.00693,0.00230,0.00699,0.00000,1.02393,0.00024,-0.05811
511.43912,49.67,-0.03337,76.35613,0.00834,-0.00942,0.00000,0.00089,-0.00008,0.00236,-0.00008,0.00000,1.03687,-0.00342,-0.06567
466.91910,49.67,0.00000,76.35613,0.00000,-0.00942,0.00000,0.00089,0.00000,0.00236,0.00000,0.00000,1.03149,0.00610,-0.06470
373.28534,49.67,0.00000,76.35613,0.00000,-0.00942,0.00000,0.00089,0.00000,0.00236,0.00000,0.00000,1.00513,0.00098,-0.07104
326.72934,49.67,0.00000,76.35279,0.00000,-0.00942,0.00000,0.00090,0.00000,0.00236,0.00000,0.00000,1.01123,-0.00024,-0.07544
279.91846,49.67,0.00000,76.35279,0.00000,-0.00942,0.00000,0.00090,0.00000,0.00236,0.00000,0.00000,1.02148,0.00977,-0.06616
233.10756,49.67,-0.00834,76.34944,-0.00834,-0.00942,0.00000,0.00090,0.00008,0.00236,0.00008,0.00000,1.01099,0.00635,-0.06201
186.55804,49.67,0.00000,76.34944,0.00000,-0.00942,0.00000,0.00090,0.00000,0.00236,0.00000,0.00000,1.02344,0.00244,-0.07104
139.75314,49.67,-0.00834,76.34275,-0.00834,-0.00942,0.00000,0.00090,0.00008,0.00236,0.00008,0.00000,1.02051,0.01172,-0.06494
93.47008,49.67,-0.03337,76.31264,-0.03337,-0.00942,0.00000,0.00090,0.00032,0.00237,0.00032,0.00000,1.02100,0.00439,-0.06738
6.46240,49.67,-0.04171,76.25242,-0.04171,-0.00942,0.00000,0.00091,0.00040,0.00237,0.00041,0.00000,1.01514,-0.00122,-0.06665
-38.61765,49.67,-0.00834,76.23903,0.00000,-0.00942,0.00000,0.00091,0.00000,0.00238,0.00000,0.00000,1.01831,0.00854,-0.07666
-85.22896,49.67,0.00000,76.23903,0.00000,-0.00942,0.00000,0.00091,0.00000,0.00238,0.00000,0.00000,1.00659,0.00073,-0.06665
-177.40652,49.67,-0.01668,76.22230,-0.01668,-0.00942,0.00000,0.00092,0.00016,0.00238,0.00016,0.00000,1.02026,0.00659,-0.06055
-217.20752,49.67,-0.16684,76.08513,-0.16684,-0.00942,0.00000,0.00094,0.00161,0.00240,0.00162,0.00000,1.01880,0.00781,-0.06958
-229.96567,49.67,-0.75912,75.31227,-0.75912,-0.00942,0.00000,0.00104,0.00729,0.00250,0.00735,0.00000,1.01855,0.00293,-0.06128
-190.33615,39.81,-1.61000,73.27138,-1.61000,-0.00942,0.00000,0.00131,0.01542,0.00278,0.01557,0.00000,1.02222,0.01636,-0.05762
-81.04552,39.81,-2.51094,69.84535,-2.51094,-0.00942,0.00000,0.00189,0.02344,0.00337,0.02372,0.00000,1.02515,-0.00415,-0.08643
84.80017,39.81,-2.82793,66.31561,-2.82793,-0.00942,0.00000,0.00242,0.02572,0.00390,0.02607,0.00000,1.00952,0.00684,-0.06909
482.27362,39.81,-2.23565,61.58810,-2.23565,-0.00942,0.00000,0.00324,0.01945,0.00474,0.01977,0.00000,1.00439,-0.00269,-0.11938
599.00031,39.81,-1.01772,60.11264,-1.01772,-0.00942,0.00000,0.00349,0.00448,0.00499,0.00456,0.00000,1.00366,-0.00635,-0.07715
552.38318,39.81,0.65068,60.69480,0.65068,-0.00942,0.00000,0.00341,-0.00557,0.00491,-0.00566,0.00000,1.01538,-0.00586,-0.06616
459.16595,39.81,0.59228,61.52454,0.59228,-0.00942,0.00000,0.00330,-0.00511,0.00479,-0.00519,0.00000,1.01123,-0.00146,-0.06201
391.04214,39.81,0.00834,61.73866,0.00834,-0.00942,0.00000,0.00324,-0.00007,0.00473,-0.00007,0.00000,1.01709,-0.01343,-0.05566
362.70169,39.81,-0.03337,61.62156,-0.03337,-0.00942,0.00000,0.00326,0.00029,0.00475,0.00029,0.00000,1.02319,0.01025,-0.05078
325.97543,39.81,0.00000,61.62156,0.00000,-0.00942,0.00000,0.00326,0.00000,0.00475,0.00000,0.00000,1.02710,0.00146,-0.05908
287.71793,39.81,0.00000,61.62156,0.00000,-0.00942,0.00000,0.00326,0.00000,0.00475,0.00000,0.00000,1.01465,-0.00024,-0.06982
249.46045,39.81,-0.00834,61.61487,-0.00834,-0.00942,0.00000,0.00326,0.00007,0.00475,0.00007,0.00000,1.02002,0.00757,-0.05713
211.72478,39.81,-0.02503,61.58810,-0.02503,-0.00942,0.00000,0.00326,0.00022,0.00476,0.00022,0.00000,1.02539,0.00195,-0.06860
139.71219,39.81,-0.02503,61.55130,-0.02503,-0.00942,0.00000,0.00327,0.00022,0.00476,0.00022,0.00000,1.01465,0.00464,-0.07031
102.61012,39.81,0.00000,61.54461,0.00000,-0.00942,0.00000,0.00327,0.00000,0.00476,0.00000,0.00000,1.01367,0.01245,-0.07153
64.74891,39.81,-0.00834,61.53792,-0.00834,-0.00942,0.00000,0.00327,0.00007,0.00477,0.00007,0.00000,1.02563,0.00879,-0.06299
27.15414,94.91,-0.00834,61.52788,-0.00834,-0.00942,0.00000,0.00327,0.00007,0.00477,0.00007,0.00000,1.01855,-0.00024,-0.05884
144.79846,94.91,0.00000,61.52788,0.00000,-0.00942,0.00000,0.00327,0.00000,0.00477,0.00000,0.00000,1.01489,0.00146,-0.06665
203.36551,94.91,0.00000,61.52788,0.00000,-0.00942,0.00000,0.00327,0.00000,0.00477,0.00000,0.00000,1.01685,0.00635,-0.05957
261.93256,94.91,0.00000,61.52788,0.00000,-0.00942,0.00000,0.00327,0.00000,0.00477,0.00000,0.00000,1.01978,0.00293,-0.06030
320.49957,94.91,0.00000,61.52788,0.00000,-0.00942,0.00000,0.00327,0.00000,0.00477,0.00000,0.00000,1.01636,0.00732,-0.07080
379.06662,94.91,0.00000,61.53123,0.00000,-0.00942,0.00000,0.00327,0.00000,0.00477,0.00000,0.00000,1.01904,0.00488,-0.07104
495.93384,94.91,0.00834,61.53792,0.00834,-0.00942,0.00000,0.00327,-0.00007,0.00477,-0.00007,0.00000,1.02612,-0.00220,-0.07202
553.97302,94.91,0.04171,61.56134,0.04171,-0.00942,0.00000,0.00327,-0.00036,0.00476,-0.00037,0.00000,1.02783,-0.00537,-0.06177
610.17255,94.91,0.09176,61.63494,0.09176,-0.00942,0.00000,0.00326,-0.00080,0.00475,-0.00081,0.00000,1.02490,-0.00928,-0.06177
662.14258,94.91,0.24192,61.92268,0.28363,-0.00942,0.00000,0.00321,-0.00246,0.00471,-0.00250,0.00000,1.01782,0.00000,-0.06714
677.62653,94.91,1.52658,63.40149,1.52658,-0.00942,0.00000,0.00302,-0.01330,0.00451,-0.01351,0.00000,1.01099,-0.00317,-0.06982
578.90094,94.91,1.80187,65.84721,1.80187,-0.00942,0.00000,0.00269,-0.01616,0.00418,-0.01640,0.00000,1.02100,0.00049,-0.04785
488.96548,94.91,0.95933,67.56022,0.95933,-0.00942,0.00000,0.00235,-0.00873,0.00383,-0.00885,0.00000,1.03540,-0.00073,-0.05640
463.96216,94.91,-0.00834,67.73755,-0.00834,-0.00942,0.00000,0.00231,0.00008,0.00379,0.00008,0.00000,1.00928,-0.00659,-0.08643
509.33875,94.91,0.00000,67.73755,0.00000,-0.00942,0.00000,0.00231,0.00000,0.00379,0.00000,0.00000,1.01562,-0.00513,-0.06885
604.68567,94.91,0.00000,67.74089,0.00000,-0.00942,0.00000,0.00231,0.00000,0.00379,0.00000,0.00000,1.02051,-0.00562,-0.05615
652.09827,94.91,0.10010,67.82454,0.10010,-0.00942,0.00000,0.00230,-0.00091,0.00378,-0.00093,0.00000,1.01953,-0.00146,-0.05786
733.50568,122.46,1.59332,69.26320,1.59332,-0.00942,0.00000,0.00212,-0.01464,0.00360,-0.01483,0.00000,1.03101,-0.00562,-0.05737
595.72046,122.46,3.05317,73.15093,3.05317,-0.00942,0.00000,0.00144,-0.02880,0.00290,-0.02912,0.00000,1.03369,0.00488,-0.11426
436.02771,122.46,2.22731,76.16877,2.22731,-0.00942,0.00000,0.00098,-0.01369,0.00245,-0.01381,0.00000,1.02075,-0.00195,-0.06030
384.58078,122.46,0.45047,77.58067,0.45047,-0.00942,0.00000,0.00069,-0.00436,0.00215,-0.00440,0.00000,1.03833,-0.01245,-0.06519
418.09482,122.46,0.00000,77.60409,0.00000,-0.00942,0.00000,0.00068,0.00000,0.00215,0.00000,0.00000,1.02759,0.01196,-0.04907
575.99554,122.46,0.00834,77.60743,0.00000,-0.00942,0.00000,0.00068,0.00000,0.00215,0.00000,0.00000,1.01978,-0.01270,-0.05811
654.42871,122.46,0.13347,77.70781,0.13347,-0.00942,0.00000,0.00067,-0.00129,0.00214,-0.00130,0.00000,1.02734,-0.00269,-0.06543
720.84821,122.46,0.59228,78.40372,0.59228,-0.01100,-0.22440,0.00073,0.01323,0.00206,-0.00579,0.00804,1.03442,0.00366,-0.05664
739.73889,122.46,2.01876,81.37138,2.47757,-0.01100,0.00000,0.00025,-0.02428,0.00158,-0.02443,0.00000,1.01294,-0.00928,-0.08105
505.03510,122.46,2.05213,84.48290,1.68508,-0.01100,0.00000,-0.00033,-0.01669,0.00099,-0.01676,0.00000,1.01709,0.00269,-0.05688
446.84390,122.46,0.36705,85.33941,0.36705,-0.01100,0.00000,-0.00051,-0.00365,0.00081,-0.00366,0.00000,1.02661,-0.00024,-0.06689
495.45178,122.46,-0.03337,85.26245,0.00000,-0.01100,0.00000,-0.00050,0.00000,0.00083,0.00000,0.00000,1.02441,-0.00659,-0.05029
563.51929,122.46,0.00000,85.26245,0.00000,-0.01100,0.00000,-0.00050,0.00000,0.00083,0.00000,0.00000,1.00806,-0.02124,-0.07178
693.51819,122.46,0.00000,85.27249,0.00000,-0.01100,0.00000,-0.00050,0.00000,0.00082,0.00000,0.00000,1.01782,-0.00610,-0.06812
718.04083,122.46,0.77580,86.21933,1.10948,-0.01100,0.00000,-0.00067,-0.01103,0.00065,-0.01107,0.00000,1.01514,-0.00073,-0.07007
662.02399,122.46,1.69342,88.39405,1.69342,-0.01100,0.00000,-0.00101,-0.01697,0.00032,-0.01701,0.00000,1.04346,-0.01001,-0.06226
524.77466,76.21,0.92596,89.51822,0.92596,-0.01100,0.00000,-0.00121,-0.00925,0.00011,-0.00926,0.00000,1.00732,-0.00122,-0.05591
435.52368,76.21,-0.05005,89.70892,-0.05005,-0.01100,0.00000,-0.00127,0.00050,0.00005,0.00050,0.00000,1.01587,-0.00879,-0.07886
411.33496,76.21,0.00000,89.70892,0.00000,-0.01100,0.00000,-0.00127,0.00000,0.00005,0.00000,0.00000,1.01953,0.00537,-0.05225
363.97800,76.21,0.00000,89.70892,0.00000,-0.01100,0.00000,-0.00127,0.00000,0.00005,0.00000,0.00000,1.01953,0.00220,-0.07642
340.29953,76.21,0.00000,89.70558,0.00000,-0.01100,0.00000,-0.00127,0.00000,0.00005,0.00008,0.00000,1.02222,0.00195,-0.06665
316.88242,76.21,0.00000,89.70558,0.00000,-0.01100,0.00000,-0.00127,0.00000,0.00005,0.00000,0.00000,1.01465,0.00659,-0.07544
293.47079,76.21,-0.00834,89.69554,-0.00834,-0.01100,0.00000,-0.00127,0.00008,0.00005,0.00008,0.00000,1.02173,0.00244,-0.06787
270.32614,76.21,-0.01668,89.67212,-0.01668,-0.01100,0.00000,-0.00126,0.00017,0.00006,0.00017,0.00000,1.01758,-0.00195,-0.06348
226.18420,76.21,-0.01668,89.64870,-0.01668,-0.01100,0.00000,-0.00126,0.00017,0.00006,0.00017,0.00000,1.02393,0.00903,-0.05688
203.64359,76.21,-0.00834,89.63532,-0.00834,-0.01100,0.00000,-0.00126,0.00008,0.00006,0.00008,0.00000,1.01221,0.00415,-0.06226
180.86516,76.21,-0.01668,89.62193,-0.01668,-0.01100,0.00000,-0.00125,0.00017,0.00007,0.00017,0.00000,1.01367,0.00366,-0.06030
158.36664,76.21,-0.05005,89.58178,-0.05005,-0.01100,0.00000,-0.00125,0.00050,0.00007,0.00050,0.00000,1.01465,0.00708,-0.06177
138.76199,76.21,-0.17518,89.38104,-0.17518,-0.01100,0.00000,-0.00122,0.00175,0.00010,0.00175,0.00000,1.01196,0.00708,-0.07153
154.85860,76.21,-0.66736,88.51450,-0.93430,-0.00942,0.22440,-0.00119,-0.00962,0.00026,0.00934,0.00804,1.01221,0.00610,-0.07251
238.82590,76.21,-1.48487,86.43346,-1.48487,-0.00942,0.00000,-0.00092,0.01488,0.00054,0.01541,0.00000,0.98706,0.00293,-0.06812
358.85339,76.21,-1.58498,83.87063,-1.58498,-0.00942,0.00000,-0.00047,0.01572,0.00098,0.01578,0.00000,1.02441,-0.00586,-0.05811
635.51245,113.11,-0.78415,82.45874,-0.78415,-0.00942,0.00000,-0.00015,0.00774,0.00131,0.00778,0.00000,1.01099,0.01343,-0.07788
688.92188,113.11,0.28363,82.68290,0.28363,-0.00942,0.00000,-0.00016,-0.00280,0.00129,-0.00281,0.00000,1.02124,0.00073,-0.06494
668.96747,113.11,1.10114,84.14164,1.10114,-0.01100,0.00000,-0.00023,-0.01098,0.00110,-0.01203,0.00000,1.01440,-0.00415,-0.05981
613.68103,113.11,0.99270,85.65390,0.99270,-0.01100,0.00000,-0.00054,-0.00986,0.00078,-0.00989,0.00000,1.02783,0.00732,-0.08765
579.21606,113.11,0.16684,86.12565,-0.00834,-0.01100,0.00000,-0.00065,0.00008,0.00068,0.00008,0.00000,1.01465,-0.01489,-0.05469
658.08118,113.11,0.00000,86.12900,0.00000,-0.01100,0.00000,-0.00065,0.00000,0.00068,-0.00008,0.00000,1.01880,-0.00562,-0.07788
704.90222,113.11,0.23358,86.43680,0.23358,-0.01100,0.00000,-0.00066,-0.00232,0.00066,-0.00233,0.00000,1.02637,0.00122,-0.05908
707.59186,113.11,1.44316,88.17323,1.44316,-0.01100,0.00000,-0.00097,-0.01431,0.00035,-0.01434,0.00000,1.01147,-0.01245,-0.08057
553.38464,113.11,1.20125,90.01673,1.20125,-0.01100,0.00000,-0.00126,-0.01200,-0.00001,-0.01009,0.00000,1.02588,0.01367,-0.05176
551.14899,113.11,-0.01668,90.38141,-0.01668,-0.01100,0.00000,-0.00139,0.00017,-0.00007,0.00017,0.00000,1.02417,0.00195,-0.07373
591.28113,113.11,0.00000,90.38141,0.00000,-0.01100,0.00000,-0.00139,0.00000,-0.00007,0.00000,0.00000,1.02539,-0.00171,-0.04614
631.15845,113.11,0.00000,90.38141,0.00000,-0.01100,0.00000,-0.00139,0.00000,-0.00007,-0.00008,0.00000,1.02808,-0.00903,-0.06445
702.81995,113.11,0.17518,90.64907,0.17518,-0.01100,0.00000,-0.00141,-0.00175,-0.00009,-0.00175,0.00000,1.01538,0.00317,-0.07153
683.77728,113.11,1.06777,91.90706,1.06777,-0.01100,0.00000,-0.00165,-0.01067,-0.00033,-0.01067,0.00000,0.99976,0.00122,-0.09131
620.59845,113.11,0.65068,93.53309,0.65068,-0.01100,0.00000,-0.00193,-0.00650,-0.00061,-0.00650,0.00000,1.01636,-0.00342,-0.05640
595.48352,113.11,0.00834,93.76394,0.00834,-0.01100,0.00000,-0.00198,-0.00008,-0.00066,-0.00008,0.00000,1.01562,0.00146,-0.06250
556.48938,71.54,0.00000,93.76394,0.00000,-0.01100,0.00000,-0.00198,0.00000,-0.00066,0.00000,0.00000,1.01855,-0.00854,-0.06641
517.49524,71.54,0.00000,93.76394,0.00000,-0.01100,0.00000,-0.00198,0.00000,-0.00066,0.00000,0.00000,1.01807,-0.00513,-0.06030
478.50107,71.54,0.00000,93.76394,0.00000,-0.01100,0.00000,-0.00198,0.00000,-0.00066,0.00000,0.00000,1.00952,-0.00391,-0.07080
439.50690,71.54,0.00000,93.76394,0.00000,-0.01100,0.00000,-0.00198,0.00000,-0.00066,0.00000,0.00000,1.02783,0.00024,-0.05957
400.51276,71.54,0.00000,93.76394,0.00000,-0.01100,0.00000,-0.00198,0.00000,-0.00066,0.00000,0.00000,1.02295,-0.00195,-0.06714
361.51859,71.54,0.00000,93.76059,0.00000,-0.01100,0.00000,-0.00198,0.00000,-0.00066,0.00000,0.00000,1.01904,0.00781,-0.06177
283.79715,71.54,0.00000,93.76059,0.00000,-0.01100,0.00000,-0.00198,0.00000,-0.00066,0.00000,0.00000,1.01440,0.00244,-0.07129
244.80901,71.54,0.00000,93.75725,0.00000,-0.01100,0.00000,-0.00198,0.00000,-0.00066,0.00000,0.00000,1.02295,0.00098,-0.06519
206.08221,71.54,-0.00834,93.75056,-0.00834,-0.01100,0.00000,-0.00198,0.00008,-0.00065,0.00008,0.00000,1.01978,0.00244,-0.06567
167.62230,71.54,-0.00834,93.74052,-0.00834,-0.01100,0.00000,-0.00197,0.00008,-0.00065,0.00008,0.00000,1.02490,0.00537,-0.06226
91.52682,71.54,-0.00834,93.72714,-0.00834,-0.01100,0.00000,-0.00197,0.00008,-0.00065,0.00008,0.00000,1.01782,0.00708,-0.07300
53.38004,71.54,-0.00834,93.71375,-0.00834,-0.01100,0.00000,-0.00197,0.00008,-0.00065,0.00008,0.00000,1.01270,0.00317,-0.06738
15.25173,71.54,-0.00834,93.70037,-0.00834,-0.01100,0.00000,-0.00197,0.00008,-0.00065,0.00008,0.00000,1.02393,0.00635,-0.06934
-22.85902,71.54,0.00000,93.69368,-0.00834,-0.01100,0.00000,-0.00197,0.00008,-0.00064,0.00008,0.00000,1.01953,0.00610,-0.06274
-61.47359,71.54,0.00000,93.68699,0.00000,-0.01100,0.00000,-0.00196,0.00000,-0.00064,0.00000,0.00000,1.01660,0.01343,-0.06787
-99.82172,71.54,-0.01668,93.67361,-0.01668,-0.01100,0.00000,-0.00196,0.00017,-0.00064,0.00017,0.00000,1.02002,0.00366,-0.06885
-172.03271,71.54,-0.06674,93.60669,-0.06674,-0.01100,0.00000,-0.00195,0.00067,-0.00063,0.00067,0.00000,1.01904,0.00366,-0.06396
-224.52409,50.75,-0.39207,93.12156,-0.39207,-0.01100,0.00000,-0.00190,0.00392,-0.00058,0.00741,0.00000,1.01074,0.00391,-0.05811
-200.01344,50.75,-1.74348,90.92677,-1.74348,-0.01100,0.00000,-0.00155,0.01743,-0.00023,0.01743,0.00000,1.04785,0.00537,-0.06226
-93.91080,50.75,-2.56933,87.43048,-2.56933,-0.01100,0.00000,-0.00086,0.02862,0.00046,0.02868,0.00000,1.01025,0.00000,-0.04810
85.12730,50.75,-3.42022,82.95390,-3.42022,-0.01100,0.00000,-0.00018,0.03388,0.00115,0.03402,0.00000,1.06519,0.00415,-0.03516
577.79834,50.75,-3.34514,78.00892,-3.34514,-0.01100,0.00000,0.00055,0.03272,0.00210,0.03180,0.00000,1.02710,0.00244,-0.08398
754.74567,50.75,0.25860,75.88773,0.25860,-0.01100,0.00000,0.00116,-0.00248,0.00249,-0.00250,0.00000,1.04199,-0.02393,-0.01636
684.32874,50.75,2.09384,78.45056,2.09384,-0.01100,0.00000,0.00079,-0.02027,0.00212,-0.02043,0.00000,0.97095,0.00122,-0.07690
276.32922,50.75,1.31803,80.28736,0.91762,-0.01100,0.00000,0.00036,-0.00898,0.00169,-0.00904,0.00000,1.02124,0.02222,-0.09448
231.40160,50.75,-0.46715,79.89926,-0.46715,-0.01100,0.00000,0.00043,0.00449,0.00176,0.00452,0.00000,1.00098,-0.00391,-0.05151
214.30049,50.75,-0.25860,79.43420,-0.25860,-0.01100,0.00000,0.00051,0.00317,0.00184,0.00320,0.00000,1.01562,0.00122,-0.07397
195.03091,50.75,-0.75912,78.51747,-0.75912,-0.01100,0.00000,0.00063,0.00740,0.00196,0.00745,0.00000,1.01074,0.03296,-0.08008
221.26630,50.75,-0.90093,77.15911,-1.05943,-0.01100,0.00000,0.00087,0.01026,0.00220,0.01034,0.00000,1.01440,-0.00464,-0.06738
266.68295,50.75,-1.15954,75.60335,-1.15954,-0.01100,0.00000,0.00116,0.01090,0.00250,0.01100,0.00000,1.00366,-0.00659,-0.07861
321.49326,50.75,-1.03441,74.31190,-1.03441,-0.01100,0.00000,0.00132,0.00989,0.00272,0.00844,0.00000,1.02441,0.00732,-0.05859
378.10074,50.75,-0.67570,73.20446,-0.67570,-0.01100,0.00000,0.00154,0.00641,0.00288,0.00648,0.00000,1.01440,-0.00659,-0.06079
368.36426,50.75,-0.05839,73.01710,-0.05839,-0.01100,0.00000,0.00158,0.00055,0.00292,0.00000,0.00000,1.02417,-0.00244,-0.06567
417.13440,100.38,0.00000,73.02045,0.00000,-0.01100,0.00000,0.00158,0.00000,0.00292,0.00000,0.00000,1.01807,0.00122,-0.06323
512.87610,100.38,0.00834,73.02379,0.00834,-0.01100,0.00000,0.00158,-0.00008,0.00292,-0.00008,0.00000,1.00781,-0.02002,-0.06982
560.61420,100.38,0.03337,73.04387,0.03337,-0.01100,0.00000,0.00158,-0.00032,0.00292,-0.00032,0.00000,1.02002,-0.00269,-0.06323
606.51807,100.38,0.04171,73.09405,0.06674,-0.01100,0.00000,0.00157,-0.00063,0.00291,-0.00064,0.00000,1.02979,-0.00342,-0.06030
649.76489,100.38,0.39207,73.51227,0.39207,-0.01100,0.00000,0.00153,-0.00372,0.00286,-0.00376,0.00000,1.01050,-0.00977,-0.05347
645.12677,100.38,0.89259,74.70335,1.00938,-0.01100,0.00000,0.00130,-0.00956,0.00264,-0.00965,0.00000,1.01074,0.00464,-0.09229
601.70331,100.38,0.74244,76.39294,0.72575,-0.01100,0.00000,0.00102,-0.00699,0.00235,-0.00705,0.00000,1.01440,-0.00342,-0.05127
593.12115,100.38,0.00000,76.73420,0.00000,-0.01100,0.00000,0.00096,0.00000,0.00229,0.00000,0.00000,1.01685,-0.00562,-0.08765
634.86035,100.38,0.00000,76.73420,0.00000,-0.01100,0.00000,0.00096,0.00000,0.00229,0.00000,0.00000,1.01758,0.00610,-0.05273
676.34418,100.38,0.10845,76.85799,0.10845,-0.01100,0.00000,0.00096,-0.00105,0.00227,-0.00244,0.00000,1.02075,-0.00610,-0.05811
650.35236,100.38,1.37643,78.47398,1.37643,-0.01100,0.00000,0.00075,-0.01335,0.00208,-0.01430,0.00000,0.98779,0.01025,-0.10205
567.73999,100.38,0.98435,80.16022,0.98435,-0.01100,0.00000,0.00040,-0.00963,0.00173,-0.00969,0.00000,1.00513,0.00562,-0.09229
536.69324,100.38,0.12513,80.60186,0.12513,-0.01100,0.00000,0.00031,-0.00123,0.00163,0.00025,0.00000,1.00928,-0.00391,-0.09619
567.30859,100.38,0.00000,80.60186,0.00000,-0.01100,0.00000,0.00031,0.00000,0.00163,0.00000,0.00000,1.01636,-0.00586,-0.06909
636.70624,100.38,0.00000,80.60186,0.00000,-0.01100,0.00000,0.00031,0.00000,0.00163,0.00000,0.00000,1.02612,-0.00464,-0.06616
609.63525,65.17,0.00000,80.60186,0.00000,-0.01100,0.00000,0.00031,0.00000,0.00163,0.00000,0.00000,1.02173,-0.00757,-0.06226
582.56433,65.17,0.00000,80.60186,0.00000,-0.01100,0.00000,0.00031,0.00000,0.00163,0.00000,0.00000,1.01465,-0.00659,-0.06763
555.49335,65.17,0.00000,80.60186,0.00000,-0.01100,0.00000,0.00031,0.00000,0.00163,0.00000,0.00000,1.01782,0.00000,-0.05713
501.35141,65.17,0.00000,80.60186,0.00000,-0.01100,0.00000,0.00031,0.00000,0.00163,0.00000,0.00000,1.01318,-0.01099,-0.06738
474.28043,65.17,0.00000,80.60186,0.00000,-0.01100,0.00000,0.00031,0.00000,0.00163,0.00000,0.00000,1.02295,-0.00903,-0.05884
447.47083,65.17,0.00000,80.59517,0.00000,-0.01100,0.00000,0.00031,0.00000,0.00163,0.00000,0.00000,1.02759,0.00171,-0.05859
420.92816,65.17,-0.01668,80.58178,-0.01668,-0.01100,0.00000,0.00031,0.00016,0.00164,0.00016,0.00000,1.01514,0.00220,-0.07007
394.91882,65.17,-0.02503,80.56171,-0.02503,-0.01100,0.00000,0.00031,0.00024,0.00164,0.00025,0.00000,1.02270,-0.00244,-0.06445
369.45532,65.17,-0.02503,80.53494,-0.02503,-0.01100,0.00000,0.00032,0.00024,0.00164,0.00025,0.00000,1.01562,0.00903,-0.06006
344.28784,65.17,-0.00834,80.52156,-0.00834,-0.01100,0.00000,0.00032,0.00008,0.00165,0.00008,0.00000,1.02490,0.00293,-0.05566
292.49277,65.17,-0.01668,80.49145,-0.01668,-0.01100,0.00000,0.00033,0.00016,0.00165,0.00016,0.00000,1.01099,0.00366,-0.06592
267.15265,65.17,-0.00834,80.47138,-0.00834,-0.01100,0.00000,0.00033,0.00008,0.00165,0.00008,0.00000,1.02930,0.00781,-0.06567
215.52669,65.17,-0.00834,80.45799,-0.00834,-0.01100,0.00000,0.00033,0.00008,0.00166,0.00008,0.00000,1.02026,0.00195,-0.06543
189.74704,65.17,-0.00834,80.44461,-0.00834,-0.01100,0.00000,0.00033,0.00008,0.00166,0.00008,0.00000,1.01343,0.01025,-0.06665
163.72858,65.17,-0.00834,80.43123,-0.00834,-0.01100,0.00000,0.00034,0.00008,0.00166,0.00008,0.00000,1.01709,0.00903,-0.06250
137.46724,65.17,-0.00834,80.42119,-0.00834,-0.01100,0.00000,0.00034,0.00008,0.00166,0.00008,0.00000,1.02441,0.00928,-0.06738
111.47932,65.17,-0.00834,80.41115,-0.00834,-0.01100,0.00000,0.00034,0.00008,0.00167,0.00008,0.00000,1.02051,-0.00098,-0.06274
-1.69537,47.56,-0.01668,80.39108,-0.01668,-0.01100,0.00000,0.00034,0.00016,0.00167,0.00016,0.00000,1.01807,0.00317,-0.08398
-57.98347,47.56,-0.01668,80.37770,0.00000,-0.01100,0.00000,0.00035,0.00000,0.00167,0.00000,0.00000,1.01416,0.00220,-0.06616
-115.02563,47.56,-0.01668,80.36431,-0.01668,-0.01100,0.00000,0.00035,0.00016,0.00167,0.00016,0.00000,1.02026,0.00366,-0.05786
-171.01125,47.56,-0.04171,80.32082,-0.04171,-0.01100,0.00000,0.00035,0.00041,0.00168,0.00041,0.00000,1.01685,0.00171,-0.07495
-222.52406,47.56,-0.15016,80.13346,-0.15016,-0.01100,0.00000,0.00038,0.00147,0.00170,0.00148,0.00000,1.02319,0.00488,-0.06592
-260.32611,47.56,-0.68404,79.28364,-0.68404,-0.01100,0.00000,0.00054,0.01035,0.00186,0.01042,0.00000,1.02124,0.00000,-0.07031
-129.60931,47.56,-2.01042,76.31264,-2.27736,-0.01100,0.00000,0.00104,0.02207,0.00237,0.02225,0.00000,1.03052,0.00293,-0.05396
42.63664,47.56,-2.95306,71.21710,-2.95306,-0.01100,0.00000,0.00176,0.02787,0.00310,0.02817,0.00000,1.01758,-0.00781,-0.08813
260.37683,47.56,-3.02814,67.29257,-3.02814,-0.01100,0.00000,0.00236,0.02789,0.00371,0.02824,0.00000,1.02148,0.02466,-0.04565
665.56250,47.56,-1.80187,64.17100,-1.80187,-0.01100,0.00000,0.00297,0.01606,0.00433,0.01629,0.00000,1.02856,0.00244,-0.07837
677.61285,47.56,0.51720,64.38513,0.81751,-0.01100,0.00000,0.00297,-0.00733,0.00432,-0.00744,0.00000,1.01953,-0.01392,-0.03418
564.24841,47.56,1.20959,65.96097,1.20959,-0.01100,0.00000,0.00275,-0.01086,0.00410,-0.01101,0.00000,1.00830,0.00000,-0.09619
433.57971,47.56,0.54223,66.81413,0.54223,-0.01100,0.00000,0.00260,-0.00491,0.00394,-0.00146,0.00000,1.02100,0.02930,-0.06738
331.38101,47.56,0.00000,66.79071,0.00000,-0.01100,0.00000,0.00259,0.00000,0.00394,0.00000,0.00000,1.01587,-0.00806,-0.05322
297.65228,47.56,0.00000,66.78736,0.00000,-0.01100,0.00000,0.00259,0.00000,0.00394,0.00008,0.00000,1.02417,0.01123,-0.06812
264.18442,47.56,0.00000,66.78401,0.00000,-0.01100,0.00000,0.00259,0.00000,0.00394,0.00008,0.00000,1.02612,0.01611,-0.06689
320.58612,98.79,0.00000,66.78401,0.00000,-0.01100,0.00000,0.00259,0.00000,0.00394,0.00000,0.00000,1.01270,-0.01416,-0.05981
432.87878,98.79,0.00000,66.78401,0.00000,-0.01100,0.00000,0.00259,0.00000,0.00394,0.00000,0.00000,1.02148,0.00195,-0.06860
489.02515,98.79,0.00000,66.78401,0.00000,-0.01100,0.00000,0.00259,0.00000,0.00394,0.00000,0.00000,1.00977,0.00488,-0.08594
545.17145,98.79,0.00000,66.78401,0.00000,-0.01100,0.00000,0.00259,0.00000,0.00394,0.00000,0.00000,1.01709,-0.00928,-0.06030
657.20276,98.79,0.00000,66.79071,0.00000,-0.01100,0.00000,0.00259,0.00000,0.00394,0.00000,0.00000,1.02197,0.00366,-0.06812
710.73273,98.79,0.02503,66.85093,0.02503,-0.01100,0.00000,0.00259,-0.00023,0.00394,-0.00023,0.00000,1.01709,0.00342,-0.07080
729.74310,98.79,0.88425,68.69777,1.50990,-0.01100,0.00000,0.00238,-0.01388,0.00373,-0.01824,0.00000,0.98071,-0.00488,-0.07910
636.97015,98.79,2.08550,71.97658,2.08550,-0.01100,0.00000,0.00183,-0.01951,0.00317,-0.01973,0.00000,1.02881,0.01807,-0.09204
414.32367,98.79,1.09280,73.61599,0.77580,-0.01100,0.00000,0.00149,-0.00736,0.00282,-0.00744,0.00000,1.00293,-0.01807,-0.08545
427.93500,98.79,-0.11679,73.66617,-0.11679,-0.01100,0.00000,0.00148,0.00111,0.00281,0.00112,0.00000,1.02905,-0.01807,-0.06738
477.65765,98.79,0.00000,73.64610,0.00000,-0.01100,0.00000,0.00148,0.00000,0.00282,0.00000,0.00000,1.01172,0.01562,-0.06274
521.76599,98.79,0.00834,73.64944,0.00834,-0.01100,0.00000,0.00148,-0.00008,0.00282,-0.00008,0.00000,1.02637,-0.00415,-0.07666
565.61304,98.79,0.00000,73.64944,0.00000,-0.01100,0.00000,0.00148,0.00000,0.00282,0.00000,0.00000,1.02075,-0.01416,-0.06006
609.71539,98.79,0.00000,73.65613,0.00000,-0.01100,0.00000,0.00148,0.00000,0.00281,0.00000,0.00000,1.01953,-0.00366,-0.07104
691.12042,98.79,0.07508,73.74647,0.07508,-0.01100,0.00000,0.00147,-0.00071,0.00280,-0.00072,0.00000,1.02124,-0.00342,-0.07324
706.09277,98.79,0.53389,74.32862,0.53389,-0.01100,0.00000,0.00140,-0.00509,0.00273,-0.00513,0.00000,1.02417,-0.00464,-0.04761
578.58734,64.37,1.62669,76.18216,1.62669,-0.01100,0.00000,0.00114,-0.01568,0.00247,-0.01582,0.00000,0.99634,0.00073,-0.09937
430.84686,64.37,0.84254,77.79480,0.84254,-0.01100,0.00000,0.00081,-0.00808,0.00214,-0.00814,0.00000,1.01001,0.00366,-0.06396
354.62732,64.37,-0.20855,77.67770,-0.20855,-0.01100,0.00000,0.00079,0.00202,0.00212,0.00204,0.00000,1.01538,-0.00244,-0.07397
347.68475,64.37,0.00000,77.61747,0.00000,-0.01100,0.00000,0.00081,0.00000,0.00214,0.00000,0.00000,1.02124,0.00952,-0.05444
303.00439,64.37,0.00000,77.61747,0.00000,-0.01100,0.00000,0.00081,0.00000,0.00214,0.00000,0.00000,1.01392,-0.00732,-0.08643
279.77090,64.37,0.00000,77.61747,0.00000,-0.01100,0.00000,0.00081,0.00000,0.00214,0.00000,0.00000,1.02612,0.00122,-0.05859
256.53741,64.37,0.00000,77.61747,0.00000,-0.01100,0.00000,0.00081,0.00000,0.00214,0.00000,0.00000,1.01465,-0.00391,-0.06885
233.30394,64.37,0.00000,77.61747,0.00000,-0.01100,0.00000,0.00081,0.00000,0.00214,0.00000,0.00000,1.01562,0.00098,-0.06030
210.07047,64.37,0.00000,77.61747,0.00000,-0.01100,0.00000,0.00081,0.00000,0.00214,0.00000,0.00000,1.01685,0.00293,-0.07178
186.83698,64.37,0.00000,77.61747,0.00000,-0.01100,0.00000,0.00081,0.00000,0.00214,0.00000,0.00000,1.02319,0.00757,-0.07227
163.60349,64.37,0.00000,77.61747,0.00000,-0.01100,0.00000,0.00081,0.00000,0.00214,0.00000,0.00000,1.03125,0.01099,-0.06445
117.13652,64.37,0.00000,77.61747,0.00000,-0.01100,0.00000,0.00081,0.00000,0.00214,0.00000,0.00000,1.01270,0.00269,-0.07349
94.16391,64.37,-0.00834,77.61413,-0.00834,-0.01100,0.00000,0.00082,0.00008,0.00214,0.00008,0.00000,1.02246,-0.00293,-0.06641
70.93642,64.37,0.00000,77.61413,0.00000,-0.01100,0.00000,0.00082,0.00000,0.00214,0.00000,0.00000,1.02344,0.00854,-0.06958
47.96988,64.37,0.00000,77.61078,0.00000,-0.01100,0.00000,0.00082,0.00000,0.00215,0.00000,0.00000,1.01636,0.00928,-0.06274
25.00883,64.37,0.00000,77.60743,0.00000,-0.01100,0.00000,0.00082,0.00000,0.00215,0.00000,0.00000,1.01367,0.00757,-0.05566
-21.16116,64.37,0.00000,77.60409,0.00000,-0.01100,0.00000,0.00082,0.00000,0.00215,0.00000,0.00000,1.01831,0.00513,-0.07935
31.00855,107.19,-0.00834,77.60074,-0.00834,-0.01100,0.00000,0.00082,0.00008,0.00215,0.00000,0.00000,1.01562,0.00366,-0.07739
82.92338,107.19,0.00000,77.60074,0.00000,-0.01100,0.00000,0.00082,0.00000,0.00215,0.00000,0.00000,1.02222,0.00854,-0.06763
134.83820,107.19,0.00000,77.60074,0.00000,-0.01100,0.00000,0.00082,0.00000,0.00215,0.00000,0.00000,1.01611,0.00391,-0.06860
186.75304,107.19,0.00000,77.60074,0.00000,-0.01100,0.00000,0.00082,0.00000,0.00215,0.00000,0.00000,1.01440,0.00391,-0.07202
290.58267,107.19,0.00000,77.60074,0.00000,-0.01100,0.00000,0.00082,0.00000,0.00215,0.00000,0.00000,1.01904,-0.00391,-0.06738
342.49750,107.19,0.00000,77.60074,0.00000,-0.01100,0.00000,0.00082,0.00000,0.00215,0.00000,0.00000,1.02270,-0.00024,-0.07300
394.41235,107.19,0.00834,77.60409,0.00834,-0.01100,0.00000,0.00082,-0.00008,0.00215,-0.00008,0.00000,1.01367,-0.00049,-0.06714
497.97598,107.19,0.00000,77.60409,0.00000,-0.01100,0.00000,0.00082,0.00000,0.00215,0.00000,0.00000,1.00977,-0.00073,-0.06226
549.88525,107.19,0.00834,77.60743,0.00000,-0.01100,0.00000,0.00082,0.00000,0.00215,0.00000,0.00000,1.01636,0.00073,-0.07495
601.53265,107.19,0.00834,77.61747,0.00834,-0.01100,0.00000,0.00081,-0.00008,0.00214,-0.00008,0.00000,1.01318,-0.00903,-0.07275
652.65320,107.19,0.16684,77.79480,0.16684,-0.01100,0.00000,0.00079,-0.00162,0.00212,-0.00163,0.00000,1.02417,0.00098,-0.06104
711.54828,107.19,0.51720,78.47398,0.51720,-0.01100,0.00000,0.00071,-0.00868,0.00198,-0.00874,0.00000,1.02075,-0.00391,-0.07153
652.52325,107.19,1.57664,80.58513,1.57664,-0.01100,0.00000,0.00034,-0.01551,0.00167,-0.01561,0.00000,1.02930,0.00732,-0.06689
568.83752,107.19,1.00938,82.11413,1.00938,-0.01100,0.00000,0.00009,-0.00993,0.00136,-0.00702,0.00000,1.02173,0.00537,-0.03369
540.65948,107.19,-0.00834,82.26803,-0.00834,-0.01100,0.00000,0.00002,0.00008,0.00135,0.00008,0.00000,1.03296,0.00000,-0.06616
625.56213,107.19,0.00000,82.27138,0.00000,-0.01100,0.00000,0.00002,0.00000,0.00135,0.00000,0.00000,1.03076,0.00146,-0.06934
601.28046,68.58,0.00000,82.26803,0.00000,-0.01100,0.00000,0.00002,0.00000,0.00134,0.00000,0.00000,1.00659,0.00195,-0.07129
577.51648,68.58,0.00000,82.26803,0.00000,-0.01100,0.00000,0.00002,0.00000,0.00135,0.00000,0.00000,1.01465,-0.00342,-0.05884
553.49664,68.58,0.00000,82.26803,0.00000,-0.01100,0.00000,0.00002,0.00000,0.00135,0.00000,0.00000,1.01953,0.00049,-0.06860
529.47687,68.58,0.00000,82.26803,0.00000,-0.01100,0.00000,0.00002,0.00000,0.00135,0.00000,0.00000,1.02075,0.00537,-0.06836
481.43719,68.58,0.00000,82.26803,0.00000,-0.01100,0.00000,0.00002,0.00000,0.00135,0.00000,0.00000,1.02881,0.00073,-0.05981
457.41736,68.58,-0.00834,82.26468,-0.00834,-0.01100,0.00000,0.00002,0.00008,0.00135,0.00008,0.00000,1.01367,0.00317,-0.06665
433.65842,68.58,-0.01668,82.25130,-0.01668,-0.01100,0.00000,0.00002,0.00016,0.00135,0.00017,0.00000,1.02441,0.00610,-0.06836
410.68866,68.58,-0.04171,82.20781,-0.04171,-0.01100,0.00000,0.00003,0.00058,0.00136,0.00058,0.00000,1.01782,0.00195,-0.06641
383.93015,68.58,-0.31700,81.88662,-0.31700,-0.01100,0.00000,0.00008,0.00312,0.00140,0.00314,0.00000,1.01245,0.00415,-0.07324
380.25613,68.58,-0.00834,81.72602,-0.00834,-0.01100,0.00000,0.00011,0.00008,0.00144,0.00008,0.00000,1.02490,0.00317,-0.07178
357.18713,68.58,0.00000,81.72602,0.00000,-0.01100,0.00000,0.00011,0.00000,0.00144,0.00000,0.00000,1.01416,-0.00366,-0.06592
334.11810,68.58,0.00000,81.72602,0.00000,-0.01100,0.00000,0.00011,0.00000,0.00144,0.00000,0.00000,1.01929,-0.00269,-0.07300
287.98007,68.58,0.00000,81.72602,0.00000,-0.01100,0.00000,0.00011,0.00000,0.00144,0.00000,0.00000,1.01855,0.00439,-0.06860
264.91104,68.58,0.00000,81.72602,0.00000,-0.01100,0.00000,0.00011,0.00000,0.00144,0.00000,0.00000,1.00830,-0.00317,-0.07471
241.84201,68.58,0.00000,81.72602,0.00000,-0.01100,0.00000,0.00011,0.00000,0.00144,0.00000,0.00000,1.02124,0.00537,-0.06445
218.77299,68.58,0.00000,81.72602,0.00000,-0.01100,0.00000,0.00011,0.00000,0.00144,0.00000,0.00000,1.01562,0.00293,-0.06543
195.70398,109.30,0.00000,81.72602,0.00000,-0.01100,0.00000,0.00011,0.00000,0.00144,0.00000,0.00000,1.01636,0.00342,-0.07373
292.43256,109.30,0.00000,81.72602,0.00000,-0.01100,0.00000,0.00011,0.00000,0.00144,0.00000,0.00000,1.01392,0.00684,-0.06323
340.79687,109.30,0.00000,81.72602,0.00000,-0.01100,0.00000,0.00011,0.00000,0.00144,0.00000,0.00000,1.01904,-0.00879,-0.07153
437.52545,109.30,0.00000,81.72602,0.00000,-0.01100,0.00000,0.00011,0.00000,0.00144,0.00000,0.00000,1.01270,0.00977,-0.07104
485.62839,109.30,0.00000,81.72937,0.00000,-0.01100,0.00000,0.00011,0.00000,0.00144,0.00000,0.00000,1.01416,-0.00269,-0.06812
533.98669,109.30,0.00000,81.73271,0.00000,-0.01100,0.00000,0.00011,0.00000,0.00144,0.00000,0.00000,1.02319,-0.00342,-0.06201
582.08453,109.30,0.00834,81.73941,0.00834,-0.01100,0.00000,0.00011,-0.00008,0.00144,-0.00008,0.00000,1.01245,-0.00659,-0.06445
629.91504,109.30,0.05839,81.80297,0.05839,-0.01100,0.00000,0.00010,-0.00082,0.00143,-0.00083,0.00000,1.02148,-0.00122,-0.06494
699.85706,109.30,0.29197,82.17435,0.29197,-0.01100,0.00000,0.00005,-0.00296,0.00137,-0.00297,0.00000,1.01416,-0.00757,-0.06274
699.04193,109.30,1.18456,83.47918,1.18456,-0.01100,0.00000,-0.00016,-0.01170,0.00116,-0.01176,0.00000,1.02539,-0.00171,-0.07129
635.26355,109.30,1.38477,85.37286,1.38477,-0.01100,0.00000,-0.00045,-0.01382,0.00079,-0.01205,0.00000,1.02905,-0.00293,-0.07666
545.28186,109.30,0.36705,86.37658,0.36705,-0.01100,0.00000,-0.00069,-0.00365,0.00063,-0.00366,0.00000,1.01270,-0.00269,-0.03955
586.80426,109.30,0.00000,86.35316,0.00000,-0.01100,0.00000,-0.00069,0.00000,0.00064,0.00000,0.00000,1.01587,-0.00977,-0.08667
627.05115,109.30,0.00000,86.35316,0.00000,-0.01100,0.00000,-0.00069,0.00000,0.00064,0.00000,0.00000,1.02393,0.01001,-0.05859
667.29846,109.30,0.00000,86.37658,0.04171,-0.01100,0.00000,-0.00069,-0.00042,0.00063,-0.00042,0.00000,1.02026,-0.01294,-0.07520
703.62994,109.30,0.30865,86.65093,0.30865,-0.01100,0.00000,-0.00072,-0.00307,0.00060,-0.00308,0.00000,1.01050,-0.00342,-0.06616
697.58105,109.30,1.24296,88.17658,1.24296,-0.01100,0.00000,-0.00092,-0.01239,0.00040,-0.01351,0.00000,1.01465,0.00830,-0.08887
641.31531,129.65,1.13451,89.65874,1.13451,-0.01100,0.00000,-0.00124,-0.01125,0.00008,-0.01126,0.00000,0.99829,0.00195,-0.07080
639.00513,129.65,0.61731,90.71933,0.44213,-0.01100,0.00000,-0.00144,-0.00442,-0.00012,-0.00442,0.00000,1.02051,-0.00806,-0.06885
676.04846,129.65,0.34202,91.16097,0.34202,-0.01100,0.00000,-0.00151,-0.00342,-0.00019,-0.00342,0.00000,1.02124,0.01343,-0.07373
710.55450,129.65,0.45047,91.81673,0.45047,-0.01100,0.00000,-0.00160,-0.00459,-0.00028,-0.00459,0.00000,1.00928,-0.00024,-0.07007
715.59296,129.65,1.71011,93.89777,1.71011,-0.01100,0.00000,-0.00196,-0.01709,-0.00064,-0.01707,0.00000,1.01050,-0.01270,-0.06567
566.12073,129.65,1.33472,95.82825,1.33472,-0.01257,0.00000,-0.00216,-0.01332,-0.00097,-0.01329,-0.00804,1.02295,-0.00073,-0.05566
581.53082,129.65,0.24192,96.28996,0.24192,-0.01257,0.00000,-0.00228,-0.00241,-0.00109,-0.00240,0.00000,1.02783,-0.00073,-0.06543
639.80652,129.65,0.00000,96.28996,0.00000,-0.01257,0.00000,-0.00229,0.00000,-0.00110,0.00000,0.00000,1.01782,-0.01147,-0.07178
698.33759,129.65,0.18352,96.47398,0.18352,-0.01257,0.00000,-0.00230,-0.00183,-0.00111,-0.00182,0.00000,1.01440,0.00269,-0.07642
719.27563,129.65,0.73409,97.99628,1.06777,-0.01257,0.00000,-0.00261,-0.01477,-0.00142,-0.01471,0.00000,1.02100,-0.01587,-0.06763
605.01251,129.65,1.51824,100.44870,1.24296,-0.01257,0.00000,-0.00301,-0.01238,-0.00182,-0.01231,0.00000,1.02270,-0.00488,-0.05908
552.89496,129.65,-0.03337,101.25836,-0.03337,-0.01257,0.00000,-0.00315,0.00033,-0.00195,0.00033,0.00000,1.01831,-0.00781,-0.07959
635.17261,129.65,0.00000,101.25836,0.00000,-0.01257,0.00000,-0.00315,0.00000,-0.00195,0.00000,0.00000,1.02002,0.00049,-0.06201
684.98798,129.65,0.00000,101.27175,0.00000,-0.01257,0.00000,-0.00315,0.00000,-0.00195,0.00000,0.00000,1.02075,-0.01050,-0.07178
719.40063,129.65,0.30031,101.66654,0.30031,-0.01257,0.00000,-0.00318,-0.00296,-0.00199,-0.00294,0.00000,1.01318,-0.00220,-0.07690
715.87518,129.65,1.43482,103.11190,1.43482,-0.01257,0.00000,-0.00343,-0.01409,-0.00223,-0.01400,0.00000,1.00879,0.00195,-0.08228
644.17102,139.83,1.49322,105.14275,1.49322,-0.01257,0.00000,-0.00376,-0.01456,-0.00256,-0.01445,0.00000,1.01440,0.00366,-0.08667
587.90320,139.83,0.53389,105.91561,0.53389,-0.01257,0.00000,-0.00393,-0.00162,-0.00274,-0.00160,0.00000,1.01001,-0.01123,-0.09204
670.17590,139.83,0.00000,105.91227,0.00000,-0.01257,0.00000,-0.00394,0.00000,-0.00274,0.00000,0.00000,1.01978,0.00317,-0.07397
729.68604,139.83,0.15016,106.01599,0.15016,-0.01257,0.00000,-0.00395,-0.00146,-0.00275,-0.00144,0.00000,1.01758,-0.00464,-0.08130
756.30182,139.83,1.15954,107.68216,1.73513,-0.01414,0.00000,-0.00422,-0.01681,-0.00302,-0.01665,0.00000,1.01538,0.00293,-0.07910
565.35999,139.83,1.78519,110.33197,1.78519,-0.01414,0.00000,-0.00448,-0.01692,-0.00341,-0.01674,0.00000,1.01733,0.01123,-0.08423
527.71954,139.83,0.78415,111.48290,0.41710,-0.01414,0.00000,-0.00474,-0.00393,-0.00366,-0.00388,0.00000,1.01440,-0.01196,-0.06689
574.47668,139.83,-0.00834,111.43606,-0.00834,-0.01414,0.00000,-0.00473,0.00008,-0.00365,0.00008,0.00000,1.01147,-0.01001,-0.06323
624.29633,139.83,0.00000,111.43606,0.00000,-0.01414,0.00000,-0.00473,0.00000,-0.00365,0.00000,0.00000,1.01587,0.00195,-0.06763
674.11597,139.83,0.01668,111.45948,0.01668,-0.01414,0.00000,-0.00473,-0.00016,-0.00366,-0.00016,0.00000,1.01685,-0.01294,-0.07373
722.10834,139.83,0.36705,111.80743,0.36705,-0.01414,0.00000,-0.00477,-0.00345,-0.00369,-0.00341,0.00000,1.03003,-0.00537,-0.06494
676.16003,139.83,1.56829,113.66097,1.56829,-0.01571,-0.22440,-0.00485,-0.01744,-0.00402,-0.01723,-0.00804,1.03369,0.01367,-0.09448
560.03986,139.83,1.62669,115.92937,1.62669,-0.01571,0.00000,-0.00526,-0.00756,-0.00430,-0.00746,0.00000,1.02441,0.00903,-0.06348
527.71893,139.83,0.07508,116.54498,0.07508,-0.01728,0.00000,-0.00529,-0.00068,-0.00447,-0.00067,-0.00804,1.00586,-0.01318,-0.06152
555.31860,139.83,0.00000,116.53829,0.00000,-0.01728,0.00000,-0.00529,0.00000,-0.00447,0.00000,0.00000,0.98291,-0.00879,-0.07788
596.18781,139.83,0.00000,116.53829,0.00000,-0.01728,0.00000,-0.00529,0.00000,-0.00447,0.00000,0.00000,1.01318,0.00854,-0.06519
581.54883,84.90,0.00000,116.53829,0.00000,-0.01728,0.00000,-0.00529,0.00000,-0.00447,0.00000,0.00000,1.01709,-0.01099,-0.07031
526.04065,84.90,0.00000,116.53829,0.00000,-0.01728,0.00000,-0.00529,0.00000,-0.00447,0.00000,0.00000,1.01660,0.00415,-0.06396
470.53244,84.90,0.00000,116.53829,0.00000,-0.01728,0.00000,-0.00529,0.00000,-0.00447,0.00000,0.00000,1.02124,0.00195,-0.06006
415.02426,84.90,-0.00834,116.52825,-0.00834,-0.01728,0.00000,-0.00529,0.00008,-0.00447,0.00007,0.00000,1.01685,0.00073,-0.06714
309.24588,84.90,-0.06674,116.45130,-0.06674,-0.01728,0.00000,-0.00528,0.00060,-0.00446,0.00060,0.00000,1.01489,0.00000,-0.06592
260.12054,84.90,-0.05005,116.37770,-0.03337,-0.01728,0.00000,-0.00526,0.00030,-0.00444,0.00030,0.00000,1.01587,0.00464,-0.07080
206.69742,84.90,-0.01668,116.35428,-0.01668,-0.01728,0.00000,-0.00526,0.00015,-0.00444,0.00015,0.00000,1.00977,0.00293,-0.06738
152.79269,84.90,-0.11679,116.24721,-0.11679,-0.01728,0.00000,-0.00525,0.00106,-0.00443,0.00105,0.00000,1.01270,0.00586,-0.06421
87.25751,84.90,-0.55891,115.64833,-0.55891,-0.01728,0.00000,-0.00518,0.00509,-0.00436,0.00503,0.00000,1.01514,0.00464,-0.07422
138.28812,84.90,-1.38477,113.94535,-1.38477,-0.01728,0.00000,-0.00496,0.01533,-0.00404,0.01515,0.00000,1.01855,0.01074,-0.07251
252.25079,84.90,-2.21897,111.04796,-2.21897,-0.01728,0.00000,-0.00445,0.02083,-0.00364,0.02061,0.00000,0.99878,0.00000,-0.09448
409.88297,84.90,-2.22731,107.58848,-2.22731,-0.01728,0.00000,-0.00383,0.02137,-0.00303,0.02118,0.00000,1.01587,0.01538,-0.07422
566.65759,84.90,-1.20959,105.48067,-1.20959,-0.01728,0.00000,-0.00350,0.01180,-0.00270,0.01171,0.00000,1.02002,-0.00586,-0.06812
617.95581,84.90,0.27529,105.52416,0.27529,-0.01728,0.00000,-0.00346,-0.00267,-0.00266,-0.00265,0.00000,1.00830,-0.00732,-0.06689
570.61346,84.90,0.00000,105.62788,0.00000,-0.01728,0.00000,-0.00350,0.00000,-0.00269,0.00000,0.00000,1.01733,-0.00122,-0.08203
534.24469,84.90,-0.00834,105.62454,-0.00834,-0.01728,0.00000,-0.00349,0.00008,-0.00269,0.00008,0.00000,1.02710,0.00146,-0.07031
498.13785,84.90,0.00000,105.62454,0.00000,-0.01728,0.00000,-0.00349,0.00000,-0.00269,0.00000,0.00000,1.02661,-0.01245,-0.06396
518.89111,117.45,0.00000,105.62454,0.00000,-0.01728,0.00000,-0.00349,0.00000,-0.00269,0.00000,0.00000,1.02075,0.00122,-0.06982
539.64435,117.45,0.00000,105.62454,0.00000,-0.01728,0.00000,-0.00349,0.00000,-0.00269,0.00000,0.00000,1.01538,0.00708,-0.06738
581.15088,117.45,0.00000,105.62454,0.00000,-0.01728,0.00000,-0.00349,0.00000,-0.00269,0.00000,0.00000,1.02026,-0.00781,-0.06714
601.90411,117.45,0.00000,105.62454,0.00000,-0.01728,0.00000,-0.00349,0.00000,-0.00269,0.00000,0.00000,1.02100,-0.00098,-0.06470
622.65735,117.45,0.00000,105.62454,0.00000,-0.01728,0.00000,-0.00349,0.00000,-0.00269,0.00000,0.00000,1.01831,0.00513,-0.07593
643.41058,117.45,0.00000,105.62454,0.00000,-0.01728,0.00000,-0.00349,0.00000,-0.00269,0.00000,0.00000,1.02783,0.00024,-0.05615
664.16388,117.45,0.00834,105.62788,0.00834,-0.01728,0.00000,-0.00350,-0.00008,-0.00269,-0.00008,0.00000,1.01294,-0.00684,-0.06860
684.65527,117.45,0.04171,105.67138,0.05839,-0.01728,0.00000,-0.00350,-0.00056,-0.00270,-0.00056,0.00000,1.01562,0.00220,-0.06885
701.22577,117.45,0.35036,106.01264,0.35036,-0.01728,0.00000,-0.00355,-0.00340,-0.00274,-0.00337,0.00000,1.02612,-0.00537,-0.06128
645.66077,117.45,0.97601,107.16357,0.97601,-0.01728,0.00000,-0.00370,-0.00935,-0.00289,-0.00927,0.00000,1.01807,-0.00342,-0.05786
608.80267,117.45,0.07508,107.64870,0.07508,-0.01728,0.00000,-0.00384,-0.00064,-0.00303,-0.00064,0.00000,1.00684,0.00732,-0.06958
624.21838,117.45,0.00000,107.64870,0.00000,-0.01728,0.00000,-0.00384,0.00000,-0.00303,0.00000,0.00000,1.00635,-0.01221,-0.05200
658.62213,117.45,0.00000,107.64870,0.00000,-0.01885,0.00000,-0.00370,0.00000,-0.00303,0.00000,0.00000,1.01685,-0.00488,-0.07544
675.82397,117.45,0.00834,107.65539,0.00834,-0.01885,0.00000,-0.00370,-0.00008,-0.00303,-0.00008,0.00000,1.01636,0.00073,-0.06396
690.67676,117.45,0.05839,107.72565,0.05839,-0.01885,0.00000,-0.00371,-0.00056,-0.00304,-0.00056,0.00000,1.02759,0.00049,-0.06616
686.94189,117.45,0.53389,108.28773,0.53389,-0.01885,0.00000,-0.00378,-0.00520,-0.00311,-0.00516,0.00000,1.02222,-0.00928,-0.06250
651.40967,117.45,0.25026,108.70260,-0.00834,-0.01885,0.00000,-0.00388,0.00008,-0.00321,0.00008,0.00000,1.01001,0.00269,-0.09375
583.38281,73.71,0.00000,108.70260,0.00000,-0.01885,0.00000,-0.00388,0.00000,-0.00321,0.00008,0.00000,1.01099,0.00586,-0.04199
460.85962,73.71,-0.00834,108.69591,-0.00834,-0.01885,0.00000,-0.00388,0.00008,-0.00321,0.00008,0.00000,1.00952,-0.01831,-0.05884
400.25635,73.71,-0.00834,108.66580,-0.00834,-0.01885,0.00000,-0.00388,0.00008,-0.00320,0.00047,0.00000,1.02563,0.01172,-0.06958
345.41464,73.71,-0.32534,108.37138,-0.32534,-0.01885,0.00000,-0.00383,0.00311,-0.00316,0.00309,0.00000,1.01025,0.00732,-0.06787
314.21472,73.71,-0.21689,108.00335,-0.21689,-0.01885,0.00000,-0.00377,0.00200,-0.00309,0.00198,0.00000,1.01172,-0.00732,-0.07300
270.63623,73.71,0.00000,108.00335,0.00000,-0.01885,0.00000,-0.00376,0.00000,-0.00309,0.00000,0.00000,1.02783,0.00513,-0.05591
150.30537,73.71,0.00000,108.00335,0.00000,-0.01885,0.00000,-0.00376,0.00000,-0.00309,0.00000,0.00000,1.02563,0.00610,-0.06738
90.13996,73.71,0.00000,108.00335,0.00000,-0.01885,0.00000,-0.00376,0.00000,-0.00309,0.00000,0.00000,1.01685,0.00098,-0.07080
30.49825,73.71,-0.00834,107.99331,-0.00834,-0.01885,0.00000,-0.00376,0.00008,-0.00309,0.00008,0.00000,1.02612,0.00879,-0.07520
-27.04517,73.71,-0.08342,107.89963,-0.08342,-0.01885,0.00000,-0.00375,0.00080,-0.00308,0.00079,0.00000,1.01855,0.00757,-0.07104
-65.47229,73.71,-0.57560,106.92268,-0.81751,-0.01885,0.00000,-0.00362,0.00787,-0.00295,0.00780,0.00000,1.02100,0.00317,-0.06689
-48.32770,73.71,-1.40980,105.17286,-1.40980,-0.01885,0.00000,-0.00337,0.01588,-0.00259,0.01577,0.00000,1.02515,-0.00220,-0.03809
139.72888,73.71,-2.21897,102.19517,-2.21897,-0.01885,0.00000,-0.00285,0.02167,-0.00219,0.02153,0.00000,1.01685,0.00610,-0.08325
289.10873,73.71,-2.75286,98.94981,-2.75286,-0.01885,0.00000,-0.00237,0.02795,-0.00152,0.02783,0.00000,1.01807,-0.00537,-0.07568
493.38113,73.71,-2.49425,95.06543,-2.49425,-0.01885,0.00000,-0.00162,0.02495,-0.00096,0.02489,0.00000,1.04004,-0.00562,-0.02661
664.39612,73.71,-0.98435,93.43271,-0.98435,-0.01885,0.00000,-0.00127,0.00200,-0.00060,0.00200,0.00000,1.02148,0.01074,-0.06738
570.58423,51.83,0.75912,94.24572,0.75912,-0.01885,0.00000,-0.00138,-0.00759,-0.00072,-0.00757,0.00000,1.02344,-0.00513,-0.04443
445.97107,51.83,0.30865,94.80446,0.30865,-0.01885,0.00000,-0.00150,-0.00308,-0.00084,-0.00308,0.00000,1.01221,-0.02002,-0.10034
369.56540,51.83,0.00000,94.80446,0.00000,-0.01885,0.00000,-0.00150,0.00000,-0.00084,0.00000,0.00000,1.01050,0.02222,-0.05688
294.18024,51.83,-0.00834,94.80112,-0.00834,-0.01885,0.00000,-0.00150,0.00008,-0.00084,0.00008,0.00000,1.02051,-0.01611,-0.07715
219.05597,51.83,0.00000,94.79777,0.00000,-0.01885,0.00000,-0.00150,0.00000,-0.00084,0.00000,0.00000,1.01489,0.00146,-0.05835
143.93819,51.83,-0.02503,94.77770,-0.02503,-0.01885,0.00000,-0.00149,0.00025,-0.00083,0.00025,0.00000,1.02490,0.00781,-0.05811
70.91500,51.83,-0.07508,94.69071,-0.07508,-0.01885,0.00000,-0.00148,0.00108,-0.00082,0.00108,0.00000,1.02466,-0.00317,-0.07031
-47.97861,51.83,-0.42544,94.23234,-0.42544,-0.01885,0.00000,-0.00142,0.00425,-0.00076,0.00424,0.00000,1.01001,0.00391,-0.05762
-42.70436,51.83,-1.20125,92.75353,-1.20125,-0.01885,0.00000,-0.00122,0.01200,-0.00047,0.01300,0.00000,1.02905,0.01270,-0.05273
13.96871,51.83,-1.90197,90.00000,-1.90197,-0.01885,0.00000,-0.00077,0.01902,-0.00011,0.01902,0.00000,1.01221,0.00903,-0.06128
256.97720,51.83,-2.61104,86.30632,-2.61104,-0.01885,0.00000,-0.00017,0.02613,0.00049,0.02617,0.00000,1.01660,0.00830,-0.04639
445.94833,51.83,-2.75286,82.54238,-2.75286,-0.01885,0.00000,0.00060,0.02731,0.00127,0.02742,0.00000,1.02856,0.00049,-0.03320
611.56995,51.83,-1.84358,79.62491,-1.23461,-0.01885,0.00000,0.00114,0.01208,0.00181,0.01215,0.00000,1.01587,-0.00513,-0.06885
670.95740,51.83,0.41710,79.54796,0.41710,-0.01885,0.00000,0.00115,-0.00408,0.00182,-0.00410,0.00000,1.02783,-0.01685,-0.04590
488.34271,51.83,0.65068,80.48141,0.65068,-0.01885,0.00000,0.00101,-0.00638,0.00167,-0.00641,0.00000,1.00977,-0.00977,-0.06909
438.11966,51.83,-0.00834,80.46134,-0.00834,-0.01885,0.00000,0.00099,0.00008,0.00166,0.00008,0.00000,1.03027,0.01611,-0.06982
389.20248,51.83,-0.02503,80.42454,-0.02503,-0.01885,0.00000,0.00100,0.00025,0.00166,0.00025,0.00000,1.01489,-0.00757,-0.05933
327.65503,40.90,-0.19187,80.21375,-0.19187,-0.01885,0.00000,0.00102,0.00188,0.00169,0.00189,0.00000,1.01147,-0.00781,-0.08057
278.81445,40.90,-0.07508,80.05651,0.00000,-0.01885,0.00000,0.00106,0.00000,0.00173,0.00000,0.00000,1.02075,0.01880,-0.05176
212.15819,40.90,0.00000,80.05651,0.00000,-0.01885,0.00000,0.00106,0.00000,0.00173,0.00000,0.00000,1.02441,-0.00220,-0.06714
143.45993,40.90,0.00000,80.05651,0.00000,-0.01885,0.00000,0.00106,0.00000,0.00173,0.00000,0.00000,1.02710,0.00244,-0.05542
6.06343,40.90,0.00000,80.05651,0.00000,-0.01885,0.00000,0.00106,0.00000,0.00173,0.00000,0.00000,1.01562,0.00586,-0.07251
-62.63483,40.90,0.00000,80.05651,0.00000,-0.01885,0.00000,0.00106,0.00000,0.00173,0.00000,0.00000,1.00269,0.00244,-0.06323
-131.33308,40.90,-0.00834,80.05316,-0.00834,-0.01885,0.00000,0.00106,0.00008,0.00173,0.00008,0.00000,1.02417,-0.00073,-0.06201
-198.72682,40.90,-0.02503,80.02305,-0.02503,-0.01885,0.00000,0.00107,0.00024,0.00173,0.00025,0.00000,1.01709,0.01245,-0.07861
-261.91275,40.90,-0.14181,79.86580,-0.14181,-0.01885,0.00000,0.00109,0.00139,0.00175,0.00140,0.00000,1.02344,0.00464,-0.05664
-309.31271,40.90,-0.68404,79.13309,-0.68404,-0.01885,0.00000,0.00118,0.00669,0.00184,0.00673,0.00000,1.01782,-0.00415,-0.06152
-290.97260,40.90,-1.77684,76.51004,-2.16057,-0.01885,0.00000,0.00162,0.02092,0.00229,0.02107,0.00000,1.01538,0.02148,-0.04810
-18.27003,40.90,-2.91135,73.11747,-2.91135,-0.01885,0.00000,0.00211,0.02789,0.00278,0.02813,0.00000,1.03418,0.00488,-0.08789
221.44386,40.90,-3.36182,68.60074,-3.36182,-0.01885,0.00000,0.00298,0.03256,0.00366,0.03291,0.00000,1.03198,0.01733,-0.00415
478.79593,40.90,-3.14493,64.29480,-3.14493,-0.01885,0.00000,0.00362,0.02825,0.00431,0.02861,0.00000,1.03882,0.01660,-0.06982
680.67450,40.90,-1.39311,61.81227,-1.39311,-0.01728,0.22440,0.00388,-0.00682,0.00471,0.01232,0.00804,1.02808,-0.00366,-0.10669
689.66333,40.90,1.12617,62.99331,1.12617,-0.01728,0.00000,0.00380,-0.00983,0.00462,-0.01484,0.00000,0.96973,-0.01465,-0.03101
523.23193,40.90,1.66006,65.61970,1.66006,-0.01885,0.00000,0.00349,-0.01486,0.00417,-0.01505,0.00000,1.04370,-0.00049,-0.13062
219.97153,35.43,0.24192,66.30558,0.24192,-0.01885,0.00000,0.00333,-0.00219,0.00402,-0.00221,0.00000,1.00342,0.04517,-0.05957
177.80098,35.43,-0.17518,66.07807,-0.17518,-0.01885,0.00000,0.00335,0.00158,0.00404,0.00244,0.00000,1.00977,-0.02466,-0.06519
160.17876,35.43,-0.67570,65.25167,-0.67570,-0.01885,0.00000,0.00347,0.00608,0.00416,0.00615,0.00000,1.02075,0.00269,-0.07861
169.73958,35.43,-0.69238,64.28476,-0.77580,-0.01885,0.00000,0.00365,0.00698,0.00434,0.00707,0.00000,1.01587,0.02466,-0.06641
187.49629,35.43,-0.75912,63.09368,-0.75912,-0.01885,0.00000,0.00380,0.00670,0.00450,0.00679,0.00000,1.02759,-0.01660,-0.06445
234.52278,35.43,-0.81751,62.02305,-0.81751,-0.01728,0.00000,0.00383,0.00715,0.00465,0.00725,0.00000,1.01953,0.00659,-0.05200
223.43904,35.43,-0.74244,61.46766,-0.74244,-0.01728,0.00000,0.00395,0.00644,0.00477,0.00653,0.00000,1.01636,0.01440,-0.07739
224.64647,35.43,-0.32534,60.92565,-0.32534,-0.01728,0.00000,0.00402,0.00280,0.00485,0.00285,0.00000,1.03296,-0.00830,-0.05469
207.85837,35.43,-0.32534,60.49071,-0.32534,-0.01728,0.00000,0.00408,0.00279,0.00491,0.00284,0.00000,1.01318,-0.00146,-0.05713
198.49278,35.43,-0.36705,60.03569,-0.36705,-0.01728,0.00000,0.00415,0.00314,0.00498,0.00318,0.00000,1.02173,0.01196,-0.05762
172.42174,35.43,0.00000,60.03569,0.00000,-0.01571,0.00000,0.00403,0.00000,0.00499,0.00000,0.00000,1.02515,0.00244,-0.05835
86.08434,35.43,0.00000,60.03569,0.00000,-0.01571,0.00000,0.00403,0.00000,0.00499,0.00000,0.00000,1.02954,0.00732,-0.05225
42.91563,35.43,0.00000,60.03569,0.00000,-0.01571,0.00000,0.00403,0.00000,0.00499,0.00000,0.00000,1.00488,0.00903,-0.07129
-0.25307,35.43,0.00000,60.03569,0.00000,-0.01571,0.00000,0.00403,0.00000,0.00499,0.00000,0.00000,1.01685,0.00708,-0.06226
-86.59048,35.43,0.00000,60.03569,0.00000,-0.01571,0.00000,0.00403,0.00000,0.00499,0.00000,0.00000,1.02490,0.00439,-0.06006
-129.75919,35.43,0.00000,60.03569,0.00000,-0.01571,0.00000,0.00403,0.00000,0.00499,0.00000,0.00000,1.01685,0.01636,-0.06641
-172.92789,35.43,-0.00834,60.03234,0.00000,-0.01571,0.00000,0.00403,0.00000,0.00500,0.00000,0.00000,1.01196,0.00342,-0.06982
-115.32874,92.72,0.00000,60.03234,0.00000,-0.01571,0.00000,0.00403,0.00000,0.00500,0.00000,0.00000,1.01929,0.00586,-0.06958
-0.64020,92.72,0.00000,60.03234,0.00000,-0.01571,0.00000,0.00403,0.00000,0.00500,0.00000,0.00000,1.02319,0.00977,-0.06128
56.70407,92.72,0.00000,60.03234,0.00000,-0.01571,0.00000,0.00403,0.00000,0.00500,0.00000,0.00000,1.01636,-0.00024,-0.06934
114.04834,92.72,0.00000,60.03234,0.00000,-0.01571,0.00000,0.00403,0.00000,0.00500,0.00000,0.00000,1.02075,0.00513,-0.07397
171.39261,92.72,0.00000,60.03569,0.00000,-0.01571,0.00000,0.00403,0.00000,0.00499,0.00000,0.00000,1.02270,0.00610,-0.06787
228.47600,92.72,0.00000,60.03569,0.00000,-0.01571,0.00000,0.00403,0.00000,0.00499,0.00000,0.00000,1.01685,0.00269,-0.06030
342.89117,92.72,0.00000,60.03903,0.00000,-0.01571,0.00000,0.00403,0.00000,0.00499,0.00000,0.00000,1.01367,0.00317,-0.07080
398.91846,92.72,0.00834,60.06245,0.01668,-0.01571,0.00000,0.00403,-0.00014,0.00499,-0.00014,0.00000,1.01440,0.00098,-0.06689
452.30524,92.72,0.09176,60.14944,0.09176,-0.01571,0.00000,0.00401,-0.00078,0.00498,-0.00080,0.00000,1.02441,-0.00684,-0.06519
497.51208,92.72,0.15016,60.36022,0.10010,-0.01571,0.00000,0.00398,-0.00086,0.00494,-0.00087,0.00000,1.02563,0.00366,-0.05835
545.84180,92.72,0.00000,60.37695,0.00000,-0.01571,0.00000,0.00398,0.00000,0.00494,-0.00007,0.00000,1.02612,0.00415,-0.06641
648.37384,92.72,0.22523,60.60781,0.22523,-0.01571,0.00000,0.00395,-0.00193,0.00491,-0.00196,0.00000,1.00952,-0.00537,-0.06250
660.23657,92.72,0.86757,61.54126,0.86757,-0.01728,-0.22440,0.00397,0.01151,0.00480,-0.00760,0.00804,1.02588,-0.00464,-0.04858
607.65887,92.72,1.48487,63.44164,1.48487,-0.01728,0.00000,0.00372,-0.01301,0.00455,-0.01319,0.00000,1.01343,0.00635,-0.06177
527.06653,92.72,1.39311,65.13457,1.39311,-0.01885,0.00000,0.00351,0.00887,0.00420,-0.01020,0.00804,1.01172,-0.00928,-0.08813
474.79651,92.72,0.30031,65.93086,0.30031,-0.01885,0.00000,0.00339,-0.00271,0.00408,-0.00274,0.00000,1.01514,0.00146,-0.08594
489.14584,121.37,0.00000,65.91413,0.00000,-0.01885,0.00000,0.00339,0.00000,0.00408,0.00000,0.00000,1.01538,-0.00342,-0.06274
684.21741,121.37,0.02503,66.00781,0.20855,-0.01885,0.00000,0.00338,-0.00188,0.00407,-0.00190,0.00000,1.02612,-0.01025,-0.07690
755.39185,121.37,1.57664,67.61375,1.57664,-0.01885,0.00000,0.00321,-0.01432,0.00389,-0.01449,0.00000,1.04834,0.01660,-0.04346
700.40869,121.37,2.78622,71.10000,2.78622,-0.01885,0.00000,0.00271,-0.02577,0.00339,-0.02604,0.00000,1.02563,-0.00928,-0.06714
411.46112,121.37,2.16057,74.53271,2.16057,-0.01885,0.00000,0.00204,-0.02057,0.00271,-0.02075,0.00000,1.01270,0.00000,-0.04980
398.63071,121.37,0.75912,75.58662,0.24192,-0.01885,0.00000,0.00182,-0.00233,0.00249,-0.00234,0.00000,1.00879,-0.01538,-0.07935
472.41397,121.37,-0.02503,75.49963,-0.02503,-0.01885,0.00000,0.00183,0.00024,0.00250,0.00024,0.00000,1.02148,0.00977,-0.05615
554.92108,121.37,0.00000,75.50297,0.00000,-0.01885,0.00000,0.00183,0.00000,0.00250,0.00000,0.00000,1.01636,-0.00806,-0.08862
712.97302,121.37,0.00834,75.53978,0.00834,-0.01885,0.00000,0.00183,-0.00008,0.00250,-0.00008,0.00000,1.02173,0.00049,-0.06494
722.62604,121.37,1.29301,77.31970,1.70177,-0.01885,0.00000,0.00157,-0.01644,0.00223,-0.01656,0.00000,1.01343,0.00977,-0.06323
614.77704,121.37,2.49425,80.48810,2.49425,-0.01885,0.00000,0.00108,-0.02438,0.00175,-0.02452,0.00000,1.02588,-0.00269,-0.04736
485.76263,121.37,1.59332,82.62268,1.59332,-0.01885,0.00000,0.00068,-0.01570,0.00135,-0.01578,0.00000,1.02515,0.00732,-0.03735
443.54169,121.37,0.02503,83.10446,0.02503,-0.01885,0.00000,0.00054,-0.00025,0.00120,-0.00025,0.00000,1.01953,-0.00342,-0.06812
560.94666,121.37,-0.00834,83.10781,-0.00834,-0.01885,0.00000,0.00054,0.00008,0.00120,-0.00008,0.00000,1.02417,-0.00391,-0.06396
627.80963,121.37,0.00834,83.11115,0.00834,-0.01885,0.00000,0.00054,-0.00008,0.00120,-0.00008,0.00000,1.01733,-0.00122,-0.07495
694.66650,121.37,0.13347,83.23160,0.13347,-0.01885,0.00000,0.00053,-0.00132,0.00119,-0.00133,0.00000,1.01685,0.00049,-0.07300
729.92938,121.37,1.29301,84.55985,1.29301,-0.01885,0.00000,0.00032,-0.01290,0.00098,-0.01294,0.00000,1.01538,-0.00391,-0.06763
609.11420,75.66,1.50990,86.60074,1.50990,-0.01885,0.00000,-0.00003,-0.01502,0.00064,-0.01506,0.00000,1.02100,0.00464,-0.07812
383.02945,75.66,0.40042,87.31338,-0.01668,-0.01885,0.00000,-0.00019,0.00017,0.00047,0.00017,0.00000,1.01831,0.00659,-0.05566
366.47351,75.66,0.00000,87.28327,0.00000,-0.01885,0.00000,-0.00019,0.00000,0.00047,0.00000,0.00000,1.01465,0.01685,-0.06885
346.08945,75.66,0.00000,87.28327,0.00000,-0.01885,0.00000,-0.00019,0.00000,0.00047,0.00000,0.00000,1.03564,0.00732,-0.06836
305.32132,75.66,0.00000,87.28327,0.00000,-0.01885,0.00000,-0.00019,0.00000,0.00047,0.00000,0.00000,1.01807,-0.00732,-0.06567
285.19818,75.66,-0.00834,87.27993,-0.00834,-0.01885,0.00000,-0.00019,0.00008,0.00047,0.00008,0.00000,1.02393,0.00366,-0.06592
264.81967,75.66,-0.00834,87.27323,-0.00834,-0.01885,0.00000,-0.00018,0.00009,0.00048,0.00008,0.00000,1.02222,0.00757,-0.07324
245.22430,75.66,-0.01668,87.26320,-0.01668,-0.01885,0.00000,-0.00018,0.00017,0.00048,0.00017,0.00000,1.01660,0.00171,-0.06299
225.90793,75.66,-0.01668,87.24312,-0.01668,-0.01885,0.00000,-0.00018,0.00017,0.00048,0.00017,0.00000,1.01489,-0.00415,-0.07324
206.87598,75.66,-0.01668,87.22639,-0.01668,-0.01885,0.00000,-0.00018,0.00017,0.00048,0.00017,0.00000,1.02100,0.01025,-0.05835
187.87363,75.66,-0.01668,87.20967,-0.00834,-0.01885,0.00000,-0.00017,0.00008,0.00049,0.00008,0.00000,1.02417,0.00928,-0.06226
149.68927,75.66,-0.01668,87.18959,-0.01668,-0.01885,0.00000,-0.00017,0.00017,0.00049,0.00017,0.00000,1.01270,0.00635,-0.07983
131.29091,75.66,-0.02503,87.16283,-0.02503,-0.01885,0.00000,-0.00017,0.00025,0.00049,0.00025,0.00000,1.02979,0.00513,-0.06421
113.97781,75.66,-0.04171,87.10929,-0.04171,-0.01885,0.00000,-0.00016,0.00042,0.00050,0.00042,0.00000,1.01709,0.00830,-0.07251
100.90617,75.66,-0.13347,86.93197,-0.13347,-0.01885,0.00000,-0.00014,0.00133,0.00052,0.00242,0.00000,1.00952,0.00488,-0.06763
107.83430,75.66,-0.90928,85.90483,-0.90928,-0.01885,0.00000,0.00002,0.00905,0.00068,0.00907,0.00000,1.02270,0.00537,-0.07690
172.79965,75.66,-1.45985,84.16506,-1.45985,-0.01885,0.00000,0.00029,0.01458,0.00095,0.01462,0.00000,1.01660,0.00537,-0.05322
348.47318,112.84,-1.50990,82.16431,-1.50990,-0.01885,0.00000,0.00061,0.01375,0.00137,0.01381,0.00000,1.01855,0.00488,-0.07520
666.04102,112.84,-0.27529,81.27435,-0.27529,-0.01885,0.00000,0.00086,0.00271,0.00152,0.00272,0.00000,1.02100,0.00562,-0.08789
684.91675,112.84,0.84254,82.21784,0.84254,-0.01885,0.00000,0.00075,-0.00830,0.00141,-0.00834,0.00000,1.01636,-0.00195,-0.05322
645.01587,112.84,1.27632,83.80706,1.17622,-0.01885,0.00000,0.00043,-0.01172,0.00109,-0.01177,0.00000,1.01465,-0.01172,-0.09155
595.41888,112.84,0.80083,84.96134,0.80083,-0.01885,0.00000,0.00024,-0.00795,0.00090,-0.00797,0.00000,1.01440,0.01465,-0.05640
580.59827,112.84,0.04171,85.17546,0.04171,-0.01885,0.00000,0.00018,-0.00041,0.00084,0.00000,0.00000,1.01050,-0.02319,-0.09106
669.23309,112.84,0.00000,85.17881,0.00000,-0.01885,0.00000,0.00018,0.00000,0.00084,0.00000,0.00000,1.02222,-0.00342,-0.06714
705.49194,112.84,0.27529,85.46989,0.27529,-0.01885,0.00000,0.00014,-0.00273,0.00081,-0.00274,0.00000,1.01001,0.00342,-0.08081
682.47522,112.84,1.16788,86.88178,1.16788,-0.02042,0.00000,0.00008,-0.01155,0.00061,-0.01249,0.00000,1.00342,-0.00073,-0.08813
614.25824,112.84,1.00938,88.62156,1.00938,-0.02042,0.00000,-0.00026,-0.01007,0.00027,-0.01009,0.00000,1.01880,0.00317,-0.05444
570.08722,112.84,0.02503,88.98290,0.02503,-0.02042,0.00000,-0.00035,-0.00025,0.00017,-0.00025,0.00000,1.00659,-0.00122,-0.08398
644.11176,112.84,0.00834,88.97621,0.00000,-0.01885,0.00000,-0.00048,0.00000,0.00018,0.00000,-0.00804,1.01855,0.00635,-0.04956
685.97284,112.84,0.01668,88.99294,0.01668,-0.01885,0.00000,-0.00048,-0.00017,0.00018,-0.00017,0.00000,1.02344,-0.00342,-0.05811
726.00720,112.84,0.21689,88.93606,0.21689,-0.02042,0.00000,-0.00045,0.00583,0.00021,0.00584,0.00000,1.01196,0.00171,-0.07715
754.25092,112.84,2.18560,91.88699,2.18560,-0.02042,0.00000,-0.00088,-0.02577,-0.00035,-0.02577,0.00000,1.01318,-0.01074,-0.09229
462.01077,112.84,1.70177,94.76097,1.70177,-0.02042,0.00000,-0.00131,-0.01700,-0.00078,-0.01697,0.00000,1.01904,0.01025,-0.05640
