CONTROLLER_FLAG,SL_PWM,U,SL_position,ARM_position,Sprung_acceleration_x
0,521.08,90.00,90.20,-0.06754,-1.66
0,495.17,90.00,90.25,-0.07069,-3.09
0,485.49,90.00,90.25,-0.07069,-5.13
0,476.80,90.00,90.25,-0.06912,-3.41
0,474.24,90.00,90.22,-0.06440,-1.31
0,529.92,90.00,90.01,-0.06440,4.01
0,542.12,90.00,89.98,-0.06126,3.42
0,543.99,90.00,89.98,-0.05969,5.07
0,545.93,90.00,89.97,-0.05969,5.80
0,546.94,90.00,89.97,-0.05969,-0.48
0,547.95,90.00,89.97,-0.05812,0.32
0,552.00,90.00,89.96,-0.05655,1.36
0,571.97,90.00,89.90,-0.05341,2.62
0,580.03,90.00,89.89,-0.05341,2.53
0,584.24,90.00,89.89,-0.05341,2.53
0,588.21,90.00,89.89,-0.05498,1.44
0,591.35,90.00,89.89,-0.05498,-0.24
0,595.45,90.00,89.89,-0.05498,-0.14
0,599.59,90.00,89.89,-0.05498,0.73
0,603.71,90.00,89.89,-0.05498,0.87
0,607.81,90.00,89.89,-0.05498,0.31
0,610.84,90.00,89.90,-0.05655,-1.00
0,603.47,90.00,89.94,-0.05812,-1.94
0,597.59,90.00,89.96,-0.05969,-2.11
0,579.57,90.00,90.03,-0.06126,-3.13
0,546.35,90.00,90.13,-0.06283,-0.59
0,507.53,90.00,90.24,-0.06912,-3.57
0,492.95,90.00,90.25,-0.07069,-4.28
0,483.27,90.00,90.25,-0.07069,-4.97
0,473.58,90.00,90.25,-0.06912,-2.15
0,487.13,90.00,90.16,-0.06440,1.62
0,540.39,90.00,89.98,-0.06283,1.80
0,544.10,90.00,89.98,-0.06126,5.91
0,544.99,90.00,89.98,-0.05969,5.91
0,546.89,90.00,89.97,-0.05969,5.42
0,546.91,90.00,89.97,-0.05969,-0.08
0,548.89,90.00,89.97,-0.05812,0.32
0,553.92,90.00,89.96,-0.05655,0.89
0,576.34,90.00,89.89,-0.05341,2.74
0,580.43,90.00,89.89,-0.05341,2.31
0,584.53,90.00,89.89,-0.05498,1.03
0,588.63,90.00,89.89,-0.05498,0.65
0,592.72,90.00,89.89,-0.05498,-0.05
0,596.82,90.00,89.89,-0.05498,-0.34
0,600.92,90.00,89.89,-0.05498,0.72
0,605.02,90.00,89.89,-0.05498,-0.17
0,608.09,90.00,89.90,-0.05655,-1.29
0,609.02,90.00,89.91,-0.05812,-1.72
0,599.04,90.00,89.95,-0.05969,-2.23
0,591.66,90.00,89.98,-0.05969,-2.77
0,569.76,90.00,90.06,-0.06283,-0.63
0,537.37,90.00,90.15,-0.06597,-2.50
0,496.94,90.00,90.26,-0.06912,-2.50
0,489.60,90.00,90.25,-0.07069,-3.41
0,479.92,90.00,90.25,-0.06912,-3.95
0,471.23,90.00,90.25,-0.06754,-2.44
0,508.64,90.00,90.09,-0.06440,-0.03
0,542.32,90.00,89.98,-0.06126,2.25
0,544.18,90.00,89.98,-0.05969,4.43
0,547.08,90.00,89.97,-0.05812,6.20
0,548.23,90.00,89.97,-0.05969,1.75
0,549.39,90.00,89.97,-0.05969,-0.87
0,550.54,90.00,89.97,-0.05812,0.25
0,562.93,90.00,89.93,-0.05498,2.35
0,577.28,90.00,89.90,-0.05341,2.78
0,581.23,90.00,89.90,-0.05341,1.57
0,585.18,90.00,89.90,-0.05498,0.39
0,589.13,90.00,89.90,-0.05498,-0.11
0,593.08,90.00,89.90,-0.05498,0.11
0,597.02,90.00,89.90,-0.05498,0.25
0,600.97,90.00,89.90,-0.05498,-0.25
0,604.92,90.00,89.90,-0.05498,-0.25
0,607.61,90.00,89.90,-0.05655,-0.99
0,604.33,90.00,89.93,-0.05812,-1.33
0,595.66,90.00,89.96,-0.05969,-2.46
0,585.90,90.00,90.00,-0.06126,-2.24
0,551.77,90.00,90.11,-0.06283,-1.60
0,514.54,90.00,90.22,-0.06912,-1.95
0,494.40,90.00,90.25,-0.07069,-3.14
0,484.83,90.00,90.25,-0.07069,-4.35
0,476.29,90.00,90.25,-0.06912,-3.11
0,480.88,90.00,90.19,-0.06283,-0.74
0,537.15,90.00,89.99,-0.06283,0.35
0,545.88,90.00,89.97,-0.05969,4.72
0,547.03,90.00,89.97,-0.05969,6.49
0,549.24,90.00,89.97,-0.05969,2.16
0,550.50,90.00,89.97,-0.05812,-0.47
0,551.77,90.00,89.97,-0.05812,0.34
0,557.05,90.00,89.95,-0.05498,2.36
0,575.57,90.00,89.90,-0.05341,2.86
0,579.38,90.00,89.90,-0.05341,2.86
0,581.98,90.00,89.90,-0.05341,1.84
0,585.72,90.00,89.90,-0.05498,0.09
0,589.40,90.00,89.90,-0.05498,-0.04
0,593.09,90.00,89.90,-0.05498,0.08
0,596.80,90.00,89.90,-0.05498,0.37
0,600.49,90.00,89.90,-0.05498,0.13
0,604.18,90.00,89.91,-0.05655,-0.49
0,604.78,90.00,89.91,-0.05812,-1.29
0,596.65,90.00,89.95,-0.05969,-2.84
0,590.37,90.00,89.98,-0.05969,-2.96
0,559.17,90.00,90.09,-0.06283,-1.06
0,526.85,90.00,90.18,-0.06912,-1.00
0,497.65,90.00,90.24,-0.07069,-2.74
0,488.29,90.00,90.24,-0.07069,-4.65
0,478.98,90.00,90.24,-0.06912,-2.60
0,475.68,90.00,90.22,-0.06440,-0.79
0,529.42,90.00,90.02,-0.06440,2.09
0,545.70,90.00,89.97,-0.06126,5.15
0,546.86,90.00,89.97,-0.05969,5.15
0,549.00,90.00,89.97,-0.05812,5.62
0,550.27,90.00,89.97,-0.05969,2.32
0,551.53,90.00,89.97,-0.05812,-0.61
0,553.82,90.00,89.96,-0.05655,0.46
0,570.68,90.00,89.91,-0.05341,2.60
0,577.25,90.00,89.90,-0.05341,2.66
0,580.94,90.00,89.90,-0.05341,1.52
0,584.62,90.00,89.90,-0.05498,0.48
0,588.31,90.00,89.90,-0.05498,-0.28
0,592.00,90.00,89.90,-0.05498,-0.15
0,595.69,90.00,89.90,-0.05498,0.60
0,599.37,90.00,89.90,-0.05498,0.24
0,602.00,90.00,89.91,-0.05655,-0.81
0,602.54,90.00,89.92,-0.05812,-1.94
0,593.24,90.00,89.96,-0.05969,-3.20
0,588.74,90.00,89.98,-0.05969,-3.27
0,570.08,90.00,90.04,-0.06283,-0.57
0,536.22,90.00,90.15,-0.06597,-2.41
0,496.95,90.00,90.25,-0.06912,-2.41
0,488.89,90.00,90.25,-0.07069,-4.14
0,479.40,90.00,90.25,-0.06912,-4.25
0,470.94,90.00,90.24,-0.06754,-2.73
0,513.86,90.00,90.06,-0.06440,1.16
0,547.30,90.00,89.96,-0.06126,2.28
0,549.92,90.00,89.96,-0.05969,6.34
0,552.61,90.00,89.95,-0.05812,6.30
0,554.39,90.00,89.95,-0.05969,-0.14
0,556.18,90.00,89.95,-0.05812,-0.27
0,557.97,90.00,89.95,-0.05655,-0.51
0,566.88,90.00,89.93,-0.05341,2.73
0,572.81,90.00,89.92,-0.05341,2.24
0,575.87,90.00,89.92,-0.05341,1.51
0,578.92,90.00,89.92,-0.05498,0.59
0,581.98,90.00,89.92,-0.05498,-0.08
0,585.03,90.00,89.92,-0.05498,-0.26
0,588.08,90.00,89.92,-0.05498,0.89
0,591.14,90.00,89.92,-0.05498,-0.26
0,594.19,90.00,89.92,-0.05655,-0.26
0,596.11,90.00,89.92,-0.05812,-0.82
0,593.94,90.00,89.94,-0.05969,-1.81
0,589.97,90.00,89.96,-0.05969,-3.26
0,577.17,90.00,90.01,-0.06126,-2.77
0,545.62,90.00,90.11,-0.06440,-0.52
0,506.42,90.00,90.22,-0.06912,-1.99
0,492.57,90.00,90.24,-0.07069,-4.07
0,484.60,90.00,90.23,-0.07069,-3.82
0,476.65,90.00,90.23,-0.06754,-2.33
0,498.25,90.00,90.12,-0.06283,1.30
0,543.05,90.00,89.97,-0.06126,2.38
0,546.16,90.00,89.97,-0.05969,6.06
0,548.43,90.00,89.96,-0.05812,6.24
0,550.92,90.00,89.96,-0.05969,1.02
0,552.45,90.00,89.96,-0.05812,-0.49
0,553.97,90.00,89.96,-0.05812,0.37
0,560.54,90.00,89.94,-0.05498,2.47
0,574.35,90.00,89.91,-0.05341,2.57
0,577.93,90.00,89.91,-0.05341,2.57
0,581.33,90.00,89.91,-0.05498,1.42
0,584.90,90.00,89.91,-0.05498,0.40
0,588.48,90.00,89.91,-0.05498,-0.04
0,592.05,90.00,89.91,-0.05498,-0.01
0,595.63,90.00,89.91,-0.05498,0.64
0,598.19,90.00,89.91,-0.05498,0.01
0,601.66,90.00,89.91,-0.05655,-0.80
0,600.01,90.00,89.93,-0.05812,-2.07
0,594.37,90.00,89.95,-0.05969,-3.59
0,586.98,90.00,89.99,-0.06126,-3.75
0,559.64,90.00,90.08,-0.06283,-0.95
0,529.84,90.00,90.17,-0.06754,-0.88
0,498.02,90.00,90.24,-0.06912,-2.94
0,488.78,90.00,90.24,-0.07069,-4.30
0,479.58,90.00,90.24,-0.06912,-2.54
0,476.42,90.00,90.22,-0.06440,-0.59
0,528.02,90.00,90.02,-0.06440,0.23
0,543.18,90.00,89.97,-0.06126,4.33
0,545.15,90.00,89.97,-0.05969,4.33
0,549.22,90.00,89.96,-0.05969,6.01
0,549.59,90.00,89.97,-0.05969,1.74
0,550.87,90.00,89.97,-0.05812,-0.39
0,553.23,90.00,89.96,-0.05655,-0.07
0,570.05,90.00,89.91,-0.05341,2.21
0,577.73,90.00,89.90,-0.05341,2.78
0,581.56,90.00,89.90,-0.05341,1.80
0,585.40,90.00,89.90,-0.05498,0.04
0,589.24,90.00,89.90,-0.05498,-0.60
0,593.07,90.00,89.90,-0.05498,-0.00
0,596.91,90.00,89.90,-0.05498,0.62
0,600.74,90.00,89.90,-0.05498,-0.04
0,603.60,90.00,89.90,-0.05655,-1.11
0,605.27,90.00,89.91,-0.05812,-1.52
0,597.20,90.00,89.95,-0.05969,-2.38
0,594.07,90.00,89.96,-0.05969,-2.79
0,577.97,90.00,90.03,-0.06126,-1.98
0,545.92,90.00,90.12,-0.06440,-0.28
0,505.11,90.00,90.24,-0.06754,-0.28
0,494.24,90.00,90.24,-0.07069,-4.25
0,484.91,90.00,90.24,-0.07069,-5.16
0,475.60,90.00,90.24,-0.06912,-3.51
0,491.61,90.00,90.15,-0.06283,-0.63
0,541.44,90.00,89.98,-0.06283,2.60
0,545.31,90.00,89.97,-0.05969,5.19
0,547.33,90.00,89.97,-0.05812,5.77
0,549.56,90.00,89.97,-0.05969,5.10
0,550.83,90.00,89.97,-0.05969,-0.12
0,552.09,90.00,89.97,-0.05812,-0.21
0,558.44,90.00,89.95,-0.05498,1.87
0,576.17,90.00,89.90,-0.05341,2.51
0,580.01,90.00,89.90,-0.05341,2.21
0,583.84,90.00,89.90,-0.05341,0.60
0,587.68,90.00,89.90,-0.05498,-0.43
0,591.52,90.00,89.90,-0.05498,0.43
0,595.35,90.00,89.90,-0.05498,0.51
0,599.19,90.00,89.90,-0.05498,0.44
0,603.03,90.00,89.90,-0.05498,0.44
0,605.61,90.00,89.90,-0.05655,-0.76
0,602.21,90.00,89.93,-0.05812,-1.53
0,592.37,90.00,89.97,-0.05969,-3.22
0,585.33,90.00,90.00,-0.06126,-3.06
0,562.87,90.00,90.07,-0.06283,-1.74
0,529.12,90.00,90.17,-0.06754,-2.06
0,498.05,90.00,90.24,-0.06912,-5.12
0,488.74,90.00,90.24,-0.07069,-4.09
0,480.43,90.00,90.24,-0.06912,-3.88
0,475.23,90.00,90.22,-0.06440,-1.85
0,527.53,90.00,90.02,-0.06440,4.20
0,544.72,90.00,89.97,-0.06126,3.02
0,546.83,90.00,89.97,-0.05969,5.06
0,550.09,90.00,89.96,-0.05969,5.80
0,551.50,90.00,89.96,-0.05969,-0.13
0,552.92,90.00,89.96,-0.05812,0.03
0,555.34,90.00,89.96,-0.05655,1.37
0,570.25,90.00,89.91,-0.05341,2.51
0,577.78,90.00,89.90,-0.05341,2.51
0,581.28,90.00,89.90,-0.05341,2.43
0,584.97,90.00,89.90,-0.05498,1.78
0,587.67,90.00,89.90,-0.05498,-0.37
0,592.33,90.00,89.90,-0.05498,-0.04
0,596.02,90.00,89.90,-0.05498,0.89
0,599.70,90.00,89.90,-0.05498,0.46
0,602.39,90.00,89.91,-0.05655,-0.47
0,603.97,90.00,89.91,-0.05812,-1.93
0,595.99,90.00,89.95,-0.05969,-2.78
0,591.69,90.00,89.97,-0.05969,-2.59
0,576.32,90.00,90.03,-0.06126,-2.46
0,544.11,90.00,90.13,-0.06440,-0.57
0,504.11,90.00,90.24,-0.06912,-3.82
0,493.91,90.00,90.24,-0.07069,-4.15
0,484.71,90.00,90.24,-0.06912,-3.92
0,476.54,90.00,90.24,-0.06754,-1.71
0,497.82,90.00,90.12,-0.06283,1.58
0,541.34,90.00,89.98,-0.06126,4.02
0,545.16,90.00,89.97,-0.05969,4.02
0,547.10,90.00,89.97,-0.05812,5.70
0,549.31,90.00,89.97,-0.05969,6.16
0,550.58,90.00,89.97,-0.05969,-0.44
0,551.84,90.00,89.97,-0.05812,-0.09
0,559.21,90.00,89.94,-0.05498,1.33
0,577.17,90.00,89.90,-0.05341,2.57
0,581.11,90.00,89.90,-0.05341,2.72
0,585.06,90.00,89.90,-0.05341,1.55
0,589.01,90.00,89.90,-0.05498,0.11
0,592.96,90.00,89.90,-0.05498,-0.39
0,596.91,90.00,89.90,-0.05498,0.33
0,600.86,90.00,89.90,-0.05498,0.93
0,604.80,90.00,89.90,-0.05498,0.22
0,607.70,90.00,89.90,-0.05655,-1.20
0,601.29,90.00,89.93,-0.05812,-2.03
0,594.36,90.00,89.96,-0.05969,-3.75
0,585.48,90.00,90.00,-0.06126,-3.32
0,557.66,90.00,90.09,-0.06283,-1.25
0,524.27,90.00,90.19,-0.06912,-1.25
0,497.19,90.00,90.25,-0.06912,-4.29
0,487.71,90.00,90.25,-0.07069,-4.79
0,479.23,90.00,90.24,-0.06912,-4.60
0,474.91,90.00,90.22,-0.06440,-2.14
0,529.58,90.00,90.02,-0.06440,3.60
0,544.82,90.00,89.97,-0.06126,3.91
0,546.84,90.00,89.97,-0.05969,5.96
0,549.07,90.00,89.97,-0.05969,6.80
0,550.33,90.00,89.97,-0.05969,-0.58
0,551.60,90.00,89.97,-0.05812,0.02
0,554.92,90.00,89.96,-0.05655,1.47
0,571.90,90.00,89.91,-0.05341,2.97
0,578.64,90.00,89.90,-0.05341,2.49
0,582.47,90.00,89.90,-0.05341,1.42
0,586.31,90.00,89.90,-0.05498,0.06
0,590.14,90.00,89.90,-0.05498,-0.46
0,593.98,90.00,89.90,-0.05498,0.08
0,597.82,90.00,89.90,-0.05498,1.22
0,601.65,90.00,89.90,-0.05498,1.22
0,604.29,90.00,89.90,-0.05655,-0.51
0,604.95,90.00,89.91,-0.05812,-0.77
0,595.77,90.00,89.95,-0.05969,-2.26
0,592.42,90.00,89.97,-0.05969,-2.14
0,573.97,90.00,90.04,-0.06126,-1.99
0,542.32,90.00,90.13,-0.06440,-0.55
0,500.87,90.00,90.25,-0.06912,-4.02
0,491.39,90.00,90.25,-0.07069,-4.77
0,481.93,90.00,90.25,-0.06912,-4.89
0,474.57,90.00,90.24,-0.06754,-2.01
0,503.97,90.00,90.10,-0.06440,2.14
0,543.23,90.00,89.98,-0.06126,2.21
0,546.33,90.00,89.97,-0.05969,5.11
0,550.57,90.00,89.96,-0.05812,5.71
0,552.10,90.00,89.96,-0.05969,-0.79
0,553.63,90.00,89.96,-0.05812,0.04
0,555.15,90.00,89.96,-0.05812,1.05
0,563.82,90.00,89.93,-0.05498,2.60
0,575.87,90.00,89.91,-0.05341,2.60
0,579.27,90.00,89.91,-0.05341,2.39
0,582.84,90.00,89.91,-0.05498,1.22
0,586.40,90.00,89.91,-0.05498,0.10
0,589.98,90.00,89.91,-0.05498,-0.18
0,593.56,90.00,89.91,-0.05498,0.07
0,597.13,90.00,89.91,-0.05498,1.45
0,600.66,90.00,89.91,-0.05655,-0.35
0,603.13,90.00,89.91,-0.05812,-1.33
0,597.31,90.00,89.94,-0.05969,-2.10
0,594.37,90.00,89.96,-0.05969,-3.24
0,584.75,90.00,90.00,-0.06126,-3.37
0,554.90,90.00,90.09,-0.06283,-0.36
0,516.32,90.00,90.21,-0.06912,-3.52
0,495.51,90.00,90.24,-0.07069,-4.70
0,486.25,90.00,90.24,-0.07069,-4.54
0,478.01,90.00,90.24,-0.06912,-2.05
0,479.83,90.00,90.20,-0.06283,0.32
0,536.83,90.00,89.99,-0.06283,3.28
0,545.64,90.00,89.97,-0.06126,3.28
0,547.81,90.00,89.97,-0.05969,5.35
0,550.15,90.00,89.96,-0.05969,5.69
0,551.57,90.00,89.96,-0.05969,0.35
0,552.98,90.00,89.96,-0.05812,-0.45
0,556.39,90.00,89.96,-0.05655,0.52
0,573.62,90.00,89.90,-0.05341,2.81
0,578.34,90.00,89.90,-0.05341,2.19
0,582.03,90.00,89.90,-0.05498,1.40
0,585.72,90.00,89.90,-0.05498,0.36
0,589.41,90.00,89.90,-0.05498,-0.20
0,593.09,90.00,89.90,-0.05498,-0.18
0,596.78,90.00,89.90,-0.05498,1.09
0,600.47,90.00,89.90,-0.05498,-0.20
0,604.16,90.00,89.90,-0.05655,-1.22
0,603.73,90.00,89.92,-0.05812,-2.02
0,595.37,90.00,89.95,-0.05969,-2.93
0,589.95,90.00,89.98,-0.05969,-2.30
0,569.21,90.00,90.05,-0.06283,-0.45
0,539.19,90.00,90.14,-0.06597,-0.45
0,498.63,90.00,90.25,-0.06912,-2.58
0,491.11,90.00,90.25,-0.07069,-4.07
0,480.68,90.00,90.25,-0.06912,-4.29
0,473.32,90.00,90.24,-0.06754,-2.31
0,508.04,90.00,90.08,-0.06440,0.98
0,543.80,90.00,89.97,-0.06126,2.02
0,546.95,90.00,89.97,-0.05969,6.26
0,550.24,90.00,89.96,-0.05812,6.25
0,551.77,90.00,89.96,-0.05969,1.19
0,553.30,90.00,89.96,-0.05812,-0.44
0,554.82,90.00,89.96,-0.05812,0.45
0,565.51,90.00,89.93,-0.05498,2.39
0,576.79,90.00,89.90,-0.05341,2.62
0,580.48,90.00,89.90,-0.05341,1.75
0,584.17,90.00,89.90,-0.05498,0.27
0,587.86,90.00,89.90,-0.05498,-0.31
0,591.54,90.00,89.90,-0.05498,-0.44
0,595.23,90.00,89.90,-0.05498,0.36
0,598.92,90.00,89.90,-0.05498,0.36
0,602.42,90.00,89.90,-0.05655,0.06
0,604.05,90.00,89.91,-0.05812,-0.90
0,599.32,90.00,89.94,-0.05812,-1.49
0,596.46,90.00,89.95,-0.05969,-2.39
0,586.98,90.00,89.99,-0.06126,-2.53
0,558.30,90.00,90.09,-0.06283,-0.98
0,525.07,90.00,90.19,-0.06912,0.72
0,496.55,90.00,90.25,-0.07069,-3.15
0,487.09,90.00,90.25,-0.07069,-4.59
0,477.63,90.00,90.24,-0.06912,-3.74
0,477.31,90.00,90.21,-0.06440,-0.61
0,533.37,90.00,90.01,-0.06440,3.45
0,543.79,90.00,89.98,-0.06126,5.04
0,545.75,90.00,89.97,-0.05969,5.69
0,547.82,90.00,89.97,-0.05969,4.70
0,548.97,90.00,89.97,-0.05969,-0.12
0,550.13,90.00,89.97,-0.05969,-0.38
0,553.31,90.00,89.96,-0.05655,1.57
0,573.28,90.00,89.90,-0.05341,1.57
0,581.14,90.00,89.89,-0.05341,2.57
0,585.35,90.00,89.89,-0.05498,2.19
0,589.56,90.00,89.89,-0.05498,1.06
0,593.77,90.00,89.89,-0.05498,-0.35
0,597.98,90.00,89.89,-0.05498,0.47
0,602.19,90.00,89.89,-0.05498,1.12
0,606.40,90.00,89.89,-0.05498,0.56
0,609.57,90.00,89.89,-0.05655,-0.34
0,609.51,90.00,89.91,-0.05812,-0.98
0,601.57,90.00,89.94,-0.05969,-2.13
0,598.55,90.00,89.96,-0.05969,-2.89
0,581.57,90.00,90.02,-0.06126,-3.81
0,552.63,90.00,90.11,-0.06283,-0.82
0,513.50,90.00,90.23,-0.06912,-2.88
0,495.12,90.00,90.25,-0.07069,-4.74
0,485.43,90.00,90.25,-0.07069,-4.58
0,476.74,90.00,90.25,-0.06912,-2.25
0,483.29,90.00,90.19,-0.06283,2.23
0,538.62,90.00,89.99,-0.06283,2.23
0,544.15,90.00,89.98,-0.06126,1.17
0,546.00,90.00,89.98,-0.05969,4.32
0,549.01,90.00,89.97,-0.05969,5.33
0,550.16,90.00,89.97,-0.05969,0.24
0,551.32,90.00,89.97,-0.05969,-0.15
0,555.49,90.00,89.96,-0.05655,1.00
0,576.70,90.00,89.90,-0.05341,2.90
0,581.82,90.00,89.89,-0.05341,2.08
0,585.91,90.00,89.89,-0.05498,1.21
0,590.01,90.00,89.89,-0.05498,0.11
0,594.11,90.00,89.89,-0.05498,-0.17
0,598.21,90.00,89.89,-0.05498,0.32
0,602.30,90.00,89.89,-0.05498,1.18
0,606.40,90.00,89.89,-0.05498,0.44
0,608.49,90.00,89.90,-0.05655,-1.16
0,606.22,90.00,89.92,-0.05812,-2.03
0,597.71,90.00,89.96,-0.05969,-2.59
0,591.08,90.00,89.98,-0.05969,-3.10
0,573.13,90.00,90.05,-0.06126,-3.10
0,542.41,90.00,90.14,-0.06440,-0.49
0,500.59,90.00,90.26,-0.06912,-2.44
0,491.86,90.00,90.25,-0.07069,-4.30
0,482.24,90.00,90.25,-0.06912,-4.28
0,473.66,90.00,90.25,-0.06754,-2.63
0,504.90,90.00,90.10,-0.06440,0.01
0,543.21,90.00,89.98,-0.06126,1.34
0,546.08,90.00,89.97,-0.05969,5.25
0,548.11,90.00,89.97,-0.05812,5.42
0,549.36,90.00,89.97,-0.05969,2.00
0,551.55,90.00,89.97,-0.05812,-0.48
0,552.82,90.00,89.97,-0.05812,-0.56
0,563.24,90.00,89.93,-0.05498,2.23
0,579.54,90.00,89.89,-0.05341,2.94
0,583.63,90.00,89.89,-0.05341,1.74
0,587.73,90.00,89.89,-0.05498,0.27
0,591.83,90.00,89.89,-0.05498,-0.64
0,595.93,90.00,89.89,-0.05498,-0.55
0,600.02,90.00,89.89,-0.05498,-0.55
0,603.92,90.00,89.89,-0.05498,0.55
0,606.99,90.00,89.90,-0.05498,0.21
0,608.92,90.00,89.90,-0.05812,-0.95
0,602.32,90.00,89.94,-0.05812,-1.41
0,597.36,90.00,89.96,-0.05969,-3.35
0,586.53,90.00,90.00,-0.05969,-2.77
0,560.64,90.00,90.09,-0.06283,-0.99
0,527.35,90.00,90.19,-0.06912,0.45
0,496.82,90.00,90.25,-0.06912,-3.59
0,488.20,90.00,90.25,-0.07069,-4.94
0,478.63,90.00,90.25,-0.06912,-3.47
0,475.09,90.00,90.23,-0.06440,-0.79
0,532.59,90.00,90.01,-0.06440,2.95
0,547.06,90.00,89.97,-0.06126,4.59
0,548.21,90.00,89.97,-0.05969,5.46
0,550.41,90.00,89.97,-0.05969,4.81
0,551.68,90.00,89.97,-0.05969,0.01
0,552.95,90.00,89.97,-0.05969,-0.43
0,555.24,90.00,89.96,-0.05655,-0.43
0,572.00,90.00,89.91,-0.05341,1.71
0,579.68,90.00,89.90,-0.05341,2.55
0,583.52,90.00,89.90,-0.05341,2.01
0,587.35,90.00,89.90,-0.05498,0.66
0,591.19,90.00,89.90,-0.05498,-0.62
0,595.03,90.00,89.90,-0.05498,0.56
0,598.86,90.00,89.90,-0.05498,0.34
0,602.70,90.00,89.90,-0.05498,0.66
0,605.53,90.00,89.90,-0.05655,-0.01
0,607.20,90.00,89.91,-0.05812,-1.26
0,598.21,90.00,89.95,-0.05969,-2.36
0,593.89,90.00,89.97,-0.05969,-3.21
0,578.57,90.00,90.03,-0.06126,-2.77
0,548.53,90.00,90.12,-0.06283,-0.24
0,505.85,90.00,90.24,-0.06912,-3.92
0,493.35,90.00,90.25,-0.07069,-4.41
0,483.79,90.00,90.25,-0.07069,-4.04
0,475.31,90.00,90.25,-0.06912,-1.58
0,490.11,90.00,90.16,-0.06283,-1.58
0,541.74,90.00,89.98,-0.06283,1.68
0,546.70,90.00,89.97,-0.05969,4.09
0,548.92,90.00,89.96,-0.05969,5.55
0,552.35,90.00,89.96,-0.05969,6.32
0,552.80,90.00,89.96,-0.05969,-0.44
0,554.21,90.00,89.96,-0.05812,-0.01
0,559.70,90.00,89.95,-0.05498,1.38
0,577.27,90.00,89.90,-0.05341,2.75
0,581.07,90.00,89.90,-0.05341,2.69
0,583.85,90.00,89.90,-0.05498,1.55
0,587.55,90.00,89.90,-0.05498,0.13
0,591.24,90.00,89.90,-0.05498,-0.43
0,594.92,90.00,89.90,-0.05498,0.20
0,598.61,90.00,89.90,-0.05498,1.15
0,602.30,90.00,89.90,-0.05498,-0.72
0,604.98,90.00,89.91,-0.05655,-1.12
0,603.47,90.00,89.93,-0.05812,-2.05
0,596.87,90.00,89.95,-0.05969,-3.14
0,592.58,90.00,89.97,-0.05969,-3.14
0,569.85,90.00,90.06,-0.06283,-3.40
0,538.55,90.00,90.15,-0.06597,-0.52
0,499.34,90.00,90.25,-0.06912,-4.41
0,491.87,90.00,90.25,-0.07069,-4.69
0,482.55,90.00,90.24,-0.06912,-4.66
0,475.25,90.00,90.24,-0.06754,-2.42
0,513.20,90.00,90.07,-0.06440,0.52
0,543.18,90.00,89.98,-0.06126,3.28
0,545.04,90.00,89.98,-0.05969,4.69
0,547.94,90.00,89.97,-0.05812,5.58
0,548.09,90.00,89.97,-0.05969,0.23
0,549.14,90.00,89.97,-0.05969,-0.08
0,551.26,90.00,89.97,-0.05812,0.09
0,565.68,90.00,89.92,-0.05498,2.79
0,582.45,90.00,89.88,-0.05341,2.17
0,586.92,90.00,89.88,-0.05341,1.50
0,591.39,90.00,89.88,-0.05498,0.62
0,594.82,90.00,89.88,-0.05498,0.12
0,599.17,90.00,89.89,-0.05498,0.12
0,603.29,90.00,89.89,-0.05498,0.20
0,607.64,90.00,89.89,-0.05498,0.99
0,611.96,90.00,89.89,-0.05655,-0.06
0,611.10,90.00,89.90,-0.05812,-0.76
0,603.38,90.00,89.94,-0.05812,-2.01
0,597.32,90.00,89.97,-0.05969,-3.38
0,586.25,90.00,90.01,-0.06126,-2.51
0,558.98,90.00,90.10,-0.06283,-0.90
0,524.33,90.00,90.20,-0.06912,-1.27
0,496.34,90.00,90.26,-0.07069,-3.09
0,486.51,90.00,90.26,-0.07069,-4.90
0,477.67,90.00,90.25,-0.06912,-2.64
0,475.00,90.00,90.22,-0.06440,-0.44
0,532.71,90.00,90.01,-0.06440,1.77
0,546.08,90.00,89.97,-0.06126,5.44
0,548.07,90.00,89.97,-0.05969,5.34
0,550.23,90.00,89.97,-0.05969,4.08
0,550.41,90.00,89.97,-0.05969,-0.66
0,551.57,90.00,89.97,-0.05812,-0.66
0,554.69,90.00,89.96,-0.05655,0.52
0,573.61,90.00,89.90,-0.05341,1.73
0,581.54,90.00,89.89,-0.05341,2.67
0,585.64,90.00,89.89,-0.05498,1.91
0,589.71,90.00,89.89,-0.05498,0.10
0,592.71,90.00,89.90,-0.05498,-0.86
0,596.66,90.00,89.90,-0.05498,-0.30
0,600.65,90.00,89.89,-0.05498,0.79
0,604.65,90.00,89.90,-0.05498,0.03
0,608.60,90.00,89.90,-0.05655,-1.08
0,607.43,90.00,89.91,-0.05812,-2.25
0,598.21,90.00,89.95,-0.05969,-3.17
0,593.81,90.00,89.97,-0.05969,-2.75
0,579.45,90.00,90.03,-0.06126,-1.55
0,548.40,90.00,90.12,-0.06283,-1.57
0,504.48,90.00,90.25,-0.06912,-4.79
0,492.78,90.00,90.25,-0.07069,-4.88
0,483.09,90.00,90.25,-0.07069,-4.05
0,474.44,90.00,90.25,-0.06912,-4.05
0,487.54,90.00,90.16,-0.06283,-1.71
0,542.81,90.00,89.98,-0.06283,3.90
0,546.76,90.00,89.97,-0.05969,3.50
0,548.89,90.00,89.97,-0.05812,5.63
0,550.16,90.00,89.97,-0.05969,5.85
0,551.43,90.00,89.97,-0.05969,-0.42
0,552.69,90.00,89.97,-0.05812,-0.50
0,559.06,90.00,89.95,-0.05498,1.39
0,578.77,90.00,89.89,-0.05341,2.65
0,581.84,90.00,89.90,-0.05341,2.44
0,585.79,90.00,89.90,-0.05498,1.74
0,589.73,90.00,89.90,-0.05498,0.15
0,593.68,90.00,89.90,-0.05498,-0.04
0,597.63,90.00,89.90,-0.05498,0.52
0,601.58,90.00,89.90,-0.05498,0.89
0,605.53,90.00,89.90,-0.05498,-0.53
0,607.46,90.00,89.90,-0.05655,-1.34
0,603.06,90.00,89.93,-0.05812,-2.34
0,597.26,90.00,89.96,-0.05969,-2.34
0,592.72,90.00,89.98,-0.05969,-2.30
0,568.75,90.00,90.06,-0.06126,-3.94
0,539.43,90.00,90.15,-0.06597,-0.10
0,497.11,90.00,90.26,-0.06912,-3.41
0,489.37,90.00,90.25,-0.07069,-4.57
0,480.73,90.00,90.25,-0.06912,-4.51
0,473.15,90.00,90.24,-0.06754,-1.87
0,513.98,90.00,90.07,-0.06440,2.12
0,545.14,90.00,89.97,-0.06126,2.34
0,547.22,90.00,89.97,-0.05969,5.39
0,549.40,90.00,89.97,-0.05812,5.36
0,550.66,90.00,89.97,-0.05969,-0.12
0,551.93,90.00,89.97,-0.05969,-0.08
0,554.20,90.00,89.96,-0.05812,1.14
0,567.85,90.00,89.92,-0.05498,2.86
0,579.41,90.00,89.90,-0.05341,2.02
0,583.35,90.00,89.90,-0.05341,1.30
0,587.30,90.00,89.90,-0.05498,0.49
0,591.25,90.00,89.90,-0.05498,0.49
0,595.00,90.00,89.90,-0.05498,0.04
0,598.95,90.00,89.90,-0.05498,0.01
0,602.90,90.00,89.90,-0.05498,1.23
0,606.84,90.00,89.90,-0.05655,0.15
0,608.68,90.00,89.91,-0.05812,-1.06
0,599.98,90.00,89.94,-0.05812,-1.65
0,596.87,90.00,89.96,-0.05969,-1.65
0,586.06,90.00,90.00,-0.06126,-1.65
0,558.09,90.00,90.09,-0.06283,-1.65
0,522.53,90.00,90.20,-0.06912,-1.65
0,496.72,90.00,90.25,-0.06912,-1.65
0,487.14,90.00,90.25,-0.07069,-1.65
0,478.58,90.00,90.25,-0.06912,-1.65
0,477.15,90.00,90.21,-0.06440,-1.65
0,532.22,90.00,90.01,-0.06440,-1.65
0,543.48,90.00,89.98,-0.06126,-1.65
0,545.32,90.00,89.98,-0.05969,-1.65
0,548.35,90.00,89.97,-0.05969,-1.65
0,549.51,90.00,89.97,-0.05969,-1.65
0,550.66,90.00,89.97,-0.05812,-1.65
0,554.85,90.00,89.96,-0.05655,-1.65
0,577.04,90.00,89.89,-0.05341,-1.65
0,583.29,90.00,89.89,-0.05341,-1.65
0,587.61,90.00,89.89,-0.05498,-1.65
0,591.93,90.00,89.89,-0.05498,-1.65
0,596.25,90.00,89.89,-0.05498,-1.65
0,600.57,90.00,89.89,-0.05498,-1.65
0,604.89,90.00,89.89,-0.05498,-1.65
0,608.22,90.00,89.89,-0.05498,-1.65
0,611.42,90.00,89.90,-0.05655,-1.65
0,608.23,90.00,89.92,-0.05812,-1.65
0,600.91,90.00,89.95,-0.05969,-1.65
0,595.60,90.00,89.98,-0.05969,-1.65
0,576.97,90.00,90.04,-0.06126,-1.65
0,548.42,90.00,90.13,-0.06283,-1.65
0,503.45,90.00,90.26,-0.06912,-1.65
0,491.49,90.00,90.26,-0.07069,-1.65
0,482.59,90.00,90.26,-0.06912,-1.65
0,473.74,90.00,90.25,-0.06754,-1.65
0,492.35,90.00,90.15,-0.06283,-1.65
0,543.26,90.00,89.98,-0.06283,-1.65
0,546.14,90.00,89.97,-0.05969,-1.65
0,547.14,90.00,89.97,-0.05812,-1.65
0,549.27,90.00,89.97,-0.05969,-1.65
0,550.41,90.00,89.97,-0.05969,-1.65
0,551.56,90.00,89.97,-0.05812,-1.65
0,559.82,90.00,89.94,-0.05498,-1.65
0,581.93,90.00,89.88,-0.05341,-1.65
0,585.37,90.00,89.89,-0.05341,-1.65
0,589.69,90.00,89.89,-0.05498,-1.65
0,594.01,90.00,89.89,-0.05498,-1.65
0,598.33,90.00,89.89,-0.05498,-1.65
0,602.65,90.00,89.89,-0.05498,-1.65
0,606.97,90.00,89.89,-0.05498,-1.65
0,611.29,90.00,89.89,-0.05498,-1.65
0,610.50,90.00,89.90,-0.05655,-1.65
0,604.93,90.00,89.93,-0.05812,-10.02
0,601.16,90.00,89.96,-0.05969,-2.37
0,591.58,90.00,89.99,-0.05969,-2.71
0,567.07,90.00,90.07,-0.06283,-1.02
0,537.33,90.00,90.16,-0.06754,0.74
0,498.46,90.00,90.26,-0.06912,-3.21
0,489.59,90.00,90.26,-0.07069,-4.84
0,480.74,90.00,90.25,-0.06912,-3.37
0,473.05,90.00,90.24,-0.06597,-0.90
0,518.05,90.00,90.06,-0.06440,2.64
0,544.29,90.00,89.98,-0.06126,4.06
0,546.10,90.00,89.98,-0.05969,4.06
0,548.95,90.00,89.97,-0.05812,5.21
0,550.10,90.00,89.97,-0.05969,4.89
0,550.16,90.00,89.97,-0.05969,-0.44
0,552.29,90.00,89.97,-0.05812,-0.21
0,568.78,90.00,89.92,-0.05498,1.80
0,582.57,90.00,89.89,-0.05341,2.50
0,586.90,90.00,89.89,-0.05341,2.22
0,591.22,90.00,89.89,-0.05498,0.74
0,594.49,90.00,89.89,-0.05498,-0.55
0,598.70,90.00,89.89,-0.05498,0.42
0,602.91,90.00,89.89,-0.05498,0.88
0,607.14,90.00,89.89,-0.05498,0.76
0,611.36,90.00,89.89,-0.05655,-0.70
0,610.36,90.00,89.91,-0.05812,-1.06
0,602.50,90.00,89.95,-0.05812,-2.72
0,596.32,90.00,89.97,-0.05969,-2.54
0,586.15,90.00,90.01,-0.06126,-1.51
0,560.07,90.00,90.10,-0.06283,-1.11
0,522.43,90.00,90.20,-0.06912,-1.11
0,496.85,90.00,90.26,-0.06912,-4.76
0,488.07,90.00,90.25,-0.07069,-4.28
0,479.36,90.00,90.25,-0.06912,-4.07
0,474.79,90.00,90.23,-0.06440,-1.85
0,529.18,90.00,90.02,-0.06440,3.56
0,543.15,90.00,89.98,-0.06126,3.40
0,544.91,90.00,89.98,-0.05969,5.84
0,546.73,90.00,89.98,-0.05969,5.74
0,547.62,90.00,89.98,-0.05969,-0.57
0,548.52,90.00,89.98,-0.05969,-0.07
0,552.43,90.00,89.96,-0.05655,1.17
0,577.49,90.00,89.89,-0.05341,3.16
0,586.06,90.00,89.88,-0.05341,2.52
0,590.79,90.00,89.88,-0.05498,1.37
0,595.53,90.00,89.88,-0.05498,-0.06
0,599.21,90.00,89.88,-0.05498,-0.27
0,604.83,90.00,89.88,-0.05498,-0.02
0,609.53,90.00,89.88,-0.05498,1.18
0,613.18,90.00,89.88,-0.05498,1.18
0,614.48,90.00,89.89,-0.05655,-0.37
0,612.39,90.00,89.91,-0.05812,-1.00
0,603.33,90.00,89.95,-0.05969,-2.35
0,595.88,90.00,89.98,-0.05969,-2.79
0,578.03,90.00,90.04,-0.06126,-2.61
0,550.43,90.00,90.13,-0.06283,-1.01
0,507.50,90.00,90.25,-0.06912,-1.82
0,493.63,90.00,90.26,-0.07069,-4.43
0,483.68,90.00,90.26,-0.07069,-4.90
0,475.84,90.00,90.25,-0.06912,-2.52
0,490.37,90.00,90.16,-0.06283,0.66
0,541.65,90.00,89.99,-0.06283,1.70
0,546.25,90.00,89.98,-0.05969,5.96
0,547.14,90.00,89.98,-0.05812,5.48
0,549.09,90.00,89.97,-0.05969,1.00
0,550.05,90.00,89.97,-0.05969,-0.34
0,551.05,90.00,89.97,-0.05812,0.48
0,559.16,90.00,89.95,-0.05498,2.49
0,582.18,90.00,89.88,-0.05341,2.49
0,586.43,90.00,89.88,-0.05341,2.76
0,590.90,90.00,89.88,-0.05498,1.57
0,594.37,90.00,89.89,-0.05498,0.48
0,598.75,90.00,89.89,-0.05498,-0.45
0,604.11,90.00,89.88,-0.05498,-0.17
0,607.59,90.00,89.89,-0.05498,0.68
0,611.96,90.00,89.89,-0.05498,0.10
0,612.19,90.00,89.90,-0.05655,-0.90
0,604.64,90.00,89.94,-0.05812,-1.97
0,595.53,90.00,89.97,-0.05969,-2.92
0,586.19,90.00,90.01,-0.05969,-3.44
0,564.33,90.00,90.08,-0.06283,-0.75
0,526.14,90.00,90.20,-0.06754,-1.71
0,497.26,90.00,90.26,-0.06912,-4.03
0,487.40,90.00,90.26,-0.07069,-4.45
0,478.58,90.00,90.25,-0.06912,-2.57
0,472.88,90.00,90.23,-0.06440,-0.35
0,527.96,90.00,90.03,-0.06440,1.15
0,547.01,90.00,89.97,-0.06126,1.15
0,548.11,90.00,89.97,-0.05969,5.02
0,551.38,90.00,89.96,-0.05969,6.02
0,552.80,90.00,89.96,-0.05969,1.37
0,554.21,90.00,89.96,-0.05812,-0.44
0,556.63,90.00,89.96,-0.05655,0.26
0,574.70,90.00,89.90,-0.05341,2.45
0,581.54,90.00,89.90,-0.05341,2.59
0,585.49,90.00,89.90,-0.05498,1.60
0,589.44,90.00,89.90,-0.05498,0.45
0,593.31,90.00,89.90,-0.05498,-0.47
0,597.17,90.00,89.90,-0.05498,-0.13
0,601.10,90.00,89.90,-0.05498,1.01
0,604.01,90.00,89.90,-0.05498,-0.03
0,606.83,90.00,89.90,-0.05655,-1.11
0,605.51,90.00,89.92,-0.05812,-1.84
0,596.95,90.00,89.96,-0.05969,-3.01
0,591.40,90.00,89.98,-0.05969,-2.54
0,571.52,90.00,90.05,-0.06283,-0.53
0,538.43,90.00,90.15,-0.06597,-0.53
0,499.62,90.00,90.25,-0.06912,-2.46
0,491.00,90.00,90.25,-0.07069,-4.08
0,481.43,90.00,90.25,-0.06912,-4.98
0,473.97,90.00,90.24,-0.06754,-2.70
0,508.54,90.00,90.09,-0.06440,0.77
0,543.96,90.00,89.98,-0.06126,1.99
0,545.93,90.00,89.97,-0.05969,6.06
0,548.95,90.00,89.97,-0.05812,6.05
0,550.22,90.00,89.97,-0.05969,0.29
0,551.48,90.00,89.97,-0.05812,-0.40
0,552.75,90.00,89.97,-0.05812,0.20
0,568.37,90.00,89.92,-0.05498,2.57
0,582.20,90.00,89.89,-0.05341,2.36
0,586.52,90.00,89.89,-0.05341,1.38
0,590.84,90.00,89.89,-0.05498,0.18
0,595.13,90.00,89.89,-0.05498,-0.11
0,599.37,90.00,89.89,-0.05498,0.25
0,603.67,90.00,89.89,-0.05498,0.97
0,607.95,90.00,89.89,-0.05498,0.97
0,610.00,90.00,89.89,-0.05655,-0.02
0,609.99,90.00,89.91,-0.05812,-1.14
0,602.16,90.00,89.95,-0.05812,-1.77
0,598.05,90.00,89.96,-0.05969,-2.89
0,586.09,90.00,90.01,-0.06126,-2.52
0,555.72,90.00,90.11,-0.06283,-0.83
0,521.81,90.00,90.21,-0.06912,-0.54
0,495.75,90.00,90.26,-0.07069,-3.69
0,487.00,90.00,90.25,-0.07069,-4.15
0,478.31,90.00,90.25,-0.06912,-2.59
0,479.80,90.00,90.21,-0.06440,-0.43
0,534.24,90.00,90.01,-0.06283,1.12
0,543.43,90.00,89.98,-0.06126,5.34
0,545.11,90.00,89.98,-0.05969,5.04
0,546.94,90.00,89.98,-0.05969,3.91
0,547.83,90.00,89.98,-0.05969,-0.83
0,548.72,90.00,89.98,-0.05812,0.22
0,554.68,90.00,89.96,-0.05655,2.05
0,581.17,90.00,89.88,-0.05341,2.05
0,586.63,90.00,89.88,-0.05341,2.77
0,591.36,90.00,89.88,-0.05498,1.92
0,596.09,90.00,89.88,-0.05498,0.31
0,599.71,90.00,89.88,-0.05498,-1.09
0,604.29,90.00,89.88,-0.05498,0.03
0,608.87,90.00,89.88,-0.05498,0.73
0,613.45,90.00,89.88,-0.05498,0.21
0,612.93,90.00,89.90,-0.05655,-0.74
0,610.68,90.00,89.92,-0.05812,-1.49
0,601.33,90.00,89.96,-0.05969,-2.76
0,594.66,90.00,89.99,-0.05969,-2.49
0,579.78,90.00,90.04,-0.06126,-2.72
0,548.44,90.00,90.13,-0.06440,-0.16
0,503.00,90.00,90.26,-0.06912,-3.73
0,491.89,90.00,90.26,-0.07069,-4.45
0,481.80,90.00,90.26,-0.06912,-4.45
0,472.80,90.00,90.26,-0.06754,-1.84
0,492.22,90.00,90.15,-0.06283,1.52
0,542.86,90.00,89.98,-0.06283,1.52
0,546.63,90.00,89.97,-0.05969,4.88
0,547.64,90.00,89.97,-0.05812,5.67
0,549.75,90.00,89.97,-0.05969,5.90
0,550.90,90.00,89.97,-0.05969,-0.79
0,552.05,90.00,89.97,-0.05812,-0.50
0,561.30,90.00,89.94,-0.05498,1.37
0,582.53,90.00,89.88,-0.05341,2.48
0,586.99,90.00,89.88,-0.05341,2.41
0,591.42,90.00,89.88,-0.05498,1.75
0,594.79,90.00,89.89,-0.05498,-0.05
0,599.11,90.00,89.89,-0.05498,-0.10
0,603.43,90.00,89.89,-0.05498,0.53
0,607.76,90.00,89.89,-0.05498,0.81
0,612.08,90.00,89.89,-0.05655,-0.39
0,611.25,90.00,89.90,-0.05655,-1.47
0,604.64,90.00,89.94,-0.05812,-2.64
0,597.62,90.00,89.97,-0.05969,-3.67
0,586.55,90.00,90.01,-0.05969,-3.47
0,562.52,90.00,90.08,-0.06283,-3.47
0,532.63,90.00,90.18,-0.06754,-0.35
0,496.24,90.00,90.26,-0.06912,-4.00
0,487.27,90.00,90.26,-0.07069,-5.22
0,478.35,90.00,90.26,-0.06912,-4.59
0,472.56,90.00,90.24,-0.06597,-1.32
0,520.99,90.00,90.05,-0.06440,3.38
0,544.48,90.00,89.98,-0.06126,2.29
0,546.42,90.00,89.97,-0.05969,6.02
0,549.51,90.00,89.97,-0.05969,5.74
0,550.77,90.00,89.97,-0.05969,-0.57
0,552.04,90.00,89.97,-0.05812,-0.24
0,555.31,90.00,89.96,-0.05655,1.00
0,574.27,90.00,89.90,-0.05341,3.26
0,582.31,90.00,89.89,-0.05341,2.39
0,586.52,90.00,89.89,-0.05498,1.34
0,590.73,90.00,89.89,-0.05498,-0.06
0,593.91,90.00,89.89,-0.05498,-0.46
0,599.03,90.00,89.89,-0.05498,-0.03
0,602.24,90.00,89.89,-0.05498,-0.03
0,606.21,90.00,89.89,-0.05498,1.31
0,609.33,90.00,89.90,-0.05655,-0.24
0,607.12,90.00,89.92,-0.05812,-1.15
0,599.82,90.00,89.95,-0.05969,-2.52
0,597.67,90.00,89.97,-0.05969,-3.27
0,579.47,90.00,90.03,-0.06126,-2.34
0,549.20,90.00,90.12,-0.06283,-0.07
0,507.56,90.00,90.24,-0.06912,-2.42
0,492.88,90.00,90.26,-0.07069,-4.76
0,484.10,90.00,90.25,-0.07069,-5.23
0,475.39,90.00,90.25,-0.06754,-2.79
0,489.04,90.00,90.16,-0.06283,0.73
0,540.27,90.00,89.99,-0.06283,2.55
0,543.91,90.00,89.98,-0.05969,5.79
0,545.70,90.00,89.98,-0.05969,5.93
0,546.59,90.00,89.98,-0.05969,1.14
0,547.49,90.00,89.98,-0.05969,-0.52
0,548.38,90.00,89.98,-0.05812,0.31
0,558.46,90.00,89.94,-0.05498,0.31
0,583.48,90.00,89.87,-0.05341,2.65
0,587.33,90.00,89.87,-0.05341,2.44
0,592.09,90.00,89.88,-0.05498,1.50
0,596.83,90.00,89.88,-0.05655,0.09
0,601.56,90.00,89.88,-0.05498,-0.48
0,606.29,90.00,89.88,-0.05498,-0.08
0,611.02,90.00,89.88,-0.05498,0.59
0,615.75,90.00,89.88,-0.05498,-0.16
0,613.25,90.00,89.90,-0.05655,-0.96
0,609.80,90.00,89.92,-0.05812,-2.00
0,604.42,90.00,89.95,-0.05812,-2.30
0,597.07,90.00,89.98,-0.05969,-2.36
0,576.05,90.00,90.05,-0.06126,-1.69
0,547.03,90.00,90.14,-0.06440,-1.15
0,502.30,90.00,90.27,-0.06912,-5.15
0,491.06,90.00,90.27,-0.07069,-4.76
0,480.86,90.00,90.27,-0.06912,-3.90
0,472.70,90.00,90.26,-0.06754,-1.99
0,497.28,90.00,90.14,-0.06283,-1.99
0,542.52,90.00,89.99,-0.06283,3.80
0,546.20,90.00,89.98,-0.05969,2.96
0,547.10,90.00,89.98,-0.05969,5.52
0,549.06,90.00,89.97,-0.05969,5.45
0,550.03,90.00,89.97,-0.05969,-0.40
0,551.02,90.00,89.97,-0.05812,-0.19
0,561.17,90.00,89.94,-0.05498,1.44
0,583.51,90.00,89.88,-0.05341,2.67
0,588.10,90.00,89.88,-0.05341,2.37
0,592.68,90.00,89.88,-0.05498,1.40
0,596.27,90.00,89.88,-0.05498,-0.35
0,601.79,90.00,89.88,-0.05498,-0.32
0,606.35,90.00,89.88,-0.05498,0.59
0,610.94,90.00,89.88,-0.05498,1.29
0,614.48,90.00,89.88,-0.05655,-0.38
0,612.71,90.00,89.91,-0.05655,-1.03
0,607.09,90.00,89.94,-0.05812,-2.61
0,601.23,90.00,89.96,-0.05969,-2.84
0,591.42,90.00,90.00,-0.05969,-2.84
0,569.88,90.00,90.07,-0.06126,-1.48
0,541.21,90.00,90.15,-0.06597,-0.39
0,496.60,90.00,90.27,-0.06912,-4.15
0,489.38,90.00,90.26,-0.07069,-5.48
0,480.27,90.00,90.26,-0.06912,-4.30
0,472.31,90.00,90.25,-0.06597,-2.08
0,511.68,90.00,90.08,-0.06440,0.61
0,543.38,90.00,89.98,-0.06126,3.19
0,545.15,90.00,89.98,-0.05969,4.91
0,548.01,90.00,89.97,-0.05969,5.40
0,549.01,90.00,89.97,-0.05969,-0.40
0,550.02,90.00,89.97,-0.05969,-0.28
0,552.01,90.00,89.97,-0.05812,0.03
0,569.51,90.00,89.91,-0.05498,2.88
0,584.50,90.00,89.88,-0.05341,2.23
0,588.06,90.00,89.88,-0.05341,1.30
0,592.55,90.00,89.88,-0.05498,0.45
0,597.02,90.00,89.88,-0.05498,-0.34
0,601.49,90.00,89.88,-0.05498,-0.34
0,605.74,90.00,89.88,-0.05498,0.28
0,610.21,90.00,89.88,-0.05498,1.03
0,613.68,90.00,89.89,-0.05655,-0.15
0,610.77,90.00,89.91,-0.05812,-0.93
0,602.78,90.00,89.95,-0.05812,-1.90
0,595.47,90.00,89.98,-0.05969,-2.77
0,582.93,90.00,90.02,-0.06126,-2.87
0,558.41,90.00,90.10,-0.06283,-0.44
0,516.49,90.00,90.23,-0.06912,-2.66
0,492.80,90.00,90.27,-0.07069,-3.97
0,483.66,90.00,90.26,-0.07069,-4.96
0,475.60,90.00,90.26,-0.06912,-2.62
0,477.81,90.00,90.21,-0.06283,-0.23
0,536.38,90.00,90.00,-0.06283,2.49
0,547.08,90.00,89.97,-0.05969,4.73
0,548.27,90.00,89.97,-0.05969,5.61
0,550.50,90.00,89.97,-0.05969,1.36
0,551.71,90.00,89.97,-0.05969,-0.66
0,552.92,90.00,89.97,-0.05812,-0.66
0,558.12,90.00,89.95,-0.05498,-0.15
0,580.78,90.00,89.88,-0.05341,2.68
0,586.22,90.00,89.88,-0.05341,2.47
0,590.69,90.00,89.88,-0.05498,1.57
0,595.16,90.00,89.88,-0.05498,0.43
0,599.56,90.00,89.88,-0.05498,-0.33
0,603.97,90.00,89.88,-0.05498,-0.09
0,608.41,90.00,89.88,-0.05498,0.53
0,611.82,90.00,89.89,-0.05498,0.17
0,612.13,90.00,89.90,-0.05655,-1.13
0,607.71,90.00,89.93,-0.05812,-1.88
0,602.16,90.00,89.95,-0.05969,-2.48
0,593.72,90.00,89.99,-0.05969,-2.24
0,571.37,90.00,90.06,-0.06126,-1.17
0,542.98,90.00,90.15,-0.06597,0.61
0,499.88,90.00,90.27,-0.06912,-3.68
0,490.82,90.00,90.26,-0.07069,-4.81
0,480.88,90.00,90.26,-0.06912,-3.11
0,472.99,90.00,90.25,-0.06754,-3.11
0,504.51,90.00,90.11,-0.06440,-0.48
0,543.56,90.00,89.98,-0.06126,3.13
0,545.31,90.00,89.98,-0.05969,5.42
0,547.18,90.00,89.98,-0.05969,5.40
0,548.08,90.00,89.98,-0.05969,4.44
0,548.97,90.00,89.98,-0.05969,-0.82
0,550.85,90.00,89.97,-0.05812,0.02
0,566.15,90.00,89.92,-0.05498,2.03
0,583.93,90.00,89.88,-0.05341,2.53
0,588.51,90.00,89.88,-0.05341,2.15
0,593.08,90.00,89.88,-0.05498,0.68
0,596.62,90.00,89.88,-0.05655,-0.40
0,601.09,90.00,89.88,-0.05498,0.79
0,605.55,90.00,89.88,-0.05498,0.87
0,610.04,90.00,89.88,-0.05498,0.94
0,614.51,90.00,89.88,-0.05655,-0.62
0,610.70,90.00,89.91,-0.05812,-1.52
0,605.87,90.00,89.94,-0.05812,-2.35
0,599.93,90.00,89.96,-0.05969,-2.35
0,592.01,90.00,90.00,-0.05969,-2.43
0,566.37,90.00,90.08,-0.06283,-2.23
0,533.29,90.00,90.18,-0.06754,-1.07
0,495.73,90.00,90.27,-0.07069,-4.01
0,486.52,90.00,90.27,-0.07069,-4.06
0,477.35,90.00,90.26,-0.06912,-4.73
0,472.33,90.00,90.24,-0.06597,-2.04
0,522.67,90.00,90.04,-0.06440,2.67
0,547.36,90.00,89.97,-0.06126,3.67
0,548.48,90.00,89.97,-0.05969,6.20
0,550.64,90.00,89.97,-0.05969,5.92
0,550.85,90.00,89.97,-0.05969,-0.58
0,552.00,90.00,89.97,-0.05969,-0.06
0,555.15,90.00,89.96,-0.05655,1.54
0,574.00,90.00,89.90,-0.05498,3.14
0,583.05,90.00,89.89,-0.05341,2.26
0,587.26,90.00,89.89,-0.05498,1.18
0,591.47,90.00,89.89,-0.05498,-0.24
0,595.68,90.00,89.89,-0.05655,-0.24
0,599.68,90.00,89.89,-0.05498,-0.17
0,603.88,90.00,89.89,-0.05498,0.07
0,608.09,90.00,89.89,-0.05498,1.20
0,611.31,90.00,89.89,-0.05655,-0.41
0,609.19,90.00,89.92,-0.05812,-0.96
0,603.03,90.00,89.94,-0.05812,-2.19
0,602.08,90.00,89.95,-0.05969,-2.35
0,587.49,90.00,90.01,-0.05969,-2.38
0,557.01,90.00,90.11,-0.06283,-0.73
0,522.11,90.00,90.21,-0.06912,-2.24
0,494.75,90.00,90.27,-0.07069,-3.84
0,484.64,90.00,90.26,-0.07069,-4.97
0,476.59,90.00,90.26,-0.06912,-2.58
0,475.81,90.00,90.22,-0.06440,-0.41
0,533.79,90.00,90.01,-0.06283,1.20
0,546.24,90.00,89.97,-0.06126,4.08
0,548.34,90.00,89.97,-0.05969,5.85
0,549.49,90.00,89.97,-0.05969,2.99
0,550.64,90.00,89.97,-0.05969,2.99
0,551.74,90.00,89.97,-0.05969,-0.53
0,554.91,90.00,89.96,-0.05655,0.36
0,576.99,90.00,89.89,-0.05341,2.12
0,584.21,90.00,89.89,-0.05341,2.69
0,588.53,90.00,89.89,-0.05498,1.69
0,592.85,90.00,89.89,-0.05498,-0.21
0,596.15,90.00,89.89,-0.05655,-1.13
0,601.44,90.00,89.89,-0.05498,-0.43
0,605.76,90.00,89.89,-0.05498,0.94
0,609.10,90.00,89.89,-0.05498,0.27
0,612.33,90.00,89.90,-0.05655,-0.90
0,607.07,90.00,89.93,-0.05812,-1.74
0,601.59,90.00,89.95,-0.05969,-2.82
0,597.40,90.00,89.97,-0.05969,-3.10
0,579.99,90.00,90.03,-0.06126,-1.39
0,551.77,90.00,90.12,-0.06283,-1.91
0,506.05,90.00,90.26,-0.06912,-4.37
0,490.92,90.00,90.27,-0.07069,-4.82
0,481.80,90.00,90.26,-0.07069,-4.82
0,474.24,90.00,90.26,-0.06912,-4.13
0,484.59,90.00,90.18,-0.06283,-2.04
0,540.33,90.00,89.98,-0.06283,4.25
0,545.05,90.00,89.97,-0.05969,3.01
0,547.01,90.00,89.97,-0.05969,4.88
0,548.02,90.00,89.97,-0.05969,5.33
0,549.03,90.00,89.97,-0.05969,-0.80
0,550.03,90.00,89.97,-0.05812,-0.50
0,559.16,90.00,89.94,-0.05498,1.59
0,583.24,90.00,89.88,-0.05341,2.82
0,586.95,90.00,89.88,-0.05341,2.46
0,591.58,90.00,89.88,-0.05498,1.47
0,596.17,90.00,89.88,-0.05498,-0.25
0,600.75,90.00,89.88,-0.05498,-0.09
0,605.33,90.00,89.88,-0.05498,0.67
0,609.91,90.00,89.88,-0.05498,1.29
0,614.49,90.00,89.88,-0.05655,-0.18
0,611.87,90.00,89.90,-0.05812,-1.39
0,606.26,90.00,89.93,-0.05812,-1.39
0,600.36,90.00,89.96,-0.05969,-2.51
0,591.59,90.00,90.00,-0.05969,-2.78
0,569.06,90.00,90.07,-0.06283,-1.80
0,538.34,90.00,90.16,-0.06754,-0.89
0,496.39,90.00,90.27,-0.06912,-4.39
0,487.20,90.00,90.27,-0.07069,-4.30
0,478.05,90.00,90.26,-0.06912,-4.63
0,471.00,90.00,90.25,-0.06754,-1.87
0,514.71,90.00,90.07,-0.06440,3.58
0,546.77,90.00,89.97,-0.06126,3.82
0,547.93,90.00,89.97,-0.05969,6.27
0,550.09,90.00,89.97,-0.05969,6.46
0,550.35,90.00,89.97,-0.05969,-0.65
0,552.51,90.00,89.97,-0.05969,-0.11
0,554.74,90.00,89.96,-0.05655,1.42
0,572.50,90.00,89.91,-0.05341,3.04
0,583.53,90.00,89.89,-0.05341,2.37
0,587.85,90.00,89.89,-0.05498,1.22
0,592.17,90.00,89.89,-0.05498,1.22
0,596.28,90.00,89.89,-0.05498,-0.18
0,600.60,90.00,89.89,-0.05498,-0.29
0,604.92,90.00,89.89,-0.05498,0.07
0,609.24,90.00,89.89,-0.05498,1.15
0,612.56,90.00,89.89,-0.05655,-0.68
0,609.56,90.00,89.91,-0.05812,-1.28
0,602.43,90.00,89.95,-0.05812,-2.51
0,598.30,90.00,89.97,-0.05969,-3.22
0,581.02,90.00,90.03,-0.06126,-2.50
0,553.95,90.00,90.11,-0.06283,-0.35
0,514.74,90.00,90.23,-0.06912,-1.61
0,493.07,90.00,90.26,-0.07069,-5.45
0,484.09,90.00,90.26,-0.07069,-5.15
0,475.17,90.00,90.26,-0.06912,-2.07
0,480.43,90.00,90.20,-0.06283,0.91
0,537.51,90.00,89.99,-0.06283,2.96
0,546.13,90.00,89.97,-0.05969,5.33
0,548.22,90.00,89.97,-0.05969,5.90
0,549.39,90.00,89.97,-0.05969,5.90
0,550.49,90.00,89.97,-0.05969,-0.25
0,551.64,90.00,89.97,-0.05812,-0.38
0,556.86,90.00,89.95,-0.05655,0.23
0,580.43,90.00,89.89,-0.05341,2.71
0,584.80,90.00,89.89,-0.05341,2.22
0,589.12,90.00,89.89,-0.05498,1.34
0,593.44,90.00,89.89,-0.05655,0.32
0,597.76,90.00,89.89,-0.05655,-0.03
0,602.08,90.00,89.89,-0.05498,0.30
0,606.40,90.00,89.89,-0.05498,0.77
0,610.72,90.00,89.89,-0.05498,-0.07
0,612.01,90.00,89.90,-0.05655,-1.17
0,606.57,90.00,89.93,-0.05812,-1.44
0,604.11,90.00,89.94,-0.05812,-2.89
0,601.14,90.00,89.96,-0.05969,-2.88
0,579.98,90.00,90.04,-0.06126,-1.45
0,547.34,90.00,90.14,-0.06283,0.04
0,506.14,90.00,90.25,-0.06912,-3.68
0,493.16,90.00,90.26,-0.07069,-3.68
0,483.71,90.00,90.26,-0.07069,-5.10
0,474.80,90.00,90.26,-0.06912,-4.03
0,488.26,90.00,90.17,-0.06283,-1.63
0,540.29,90.00,89.99,-0.06283,4.02
0,544.77,90.00,89.98,-0.05969,2.86
0,545.55,90.00,89.98,-0.05969,5.30
0,546.36,90.00,89.98,-0.05969,5.48
0,547.15,90.00,89.98,-0.05969,-0.43
0,547.93,90.00,89.98,-0.05812,-0.42
0,557.88,90.00,89.95,-0.05498,1.70
0,584.04,90.00,89.87,-0.05341,2.73
0,588.88,90.00,89.87,-0.05498,2.20
0,593.72,90.00,89.87,-0.05498,1.07
0,598.57,90.00,89.88,-0.05655,-0.33
0,603.35,90.00,89.87,-0.05498,0.18
0,608.18,90.00,89.87,-0.05498,0.84
0,613.02,90.00,89.87,-0.05498,1.38
0,616.81,90.00,89.88,-0.05498,-0.25
0,613.26,90.00,89.90,-0.05655,-0.25
0,609.57,90.00,89.93,-0.05812,-1.49
0,599.88,90.00,89.97,-0.05969,-2.58
0,591.78,90.00,90.00,-0.05969,-3.33
0,575.41,90.00,90.05,-0.06126,-2.38
0,542.28,90.00,90.15,-0.06597,-0.61
0,498.80,90.00,90.27,-0.06912,-4.06
0,489.51,90.00,90.27,-0.07069,-4.30
0,479.31,90.00,90.27,-0.06912,-4.79
0,471.16,90.00,90.26,-0.06754,-1.90
0,505.11,90.00,90.11,-0.06440,1.73
0,543.12,90.00,89.98,-0.06126,1.83
0,544.87,90.00,89.98,-0.05969,4.98
0,546.67,90.00,89.97,-0.05812,5.20
0,547.65,90.00,89.98,-0.05969,0.22
0,548.57,90.00,89.98,-0.05969,-0.37
0,550.53,90.00,89.97,-0.05812,1.04
0,565.88,90.00,89.92,-0.05498,3.13
0,584.75,90.00,89.88,-0.05341,2.38
0,589.48,90.00,89.88,-0.05341,2.38
0,593.98,90.00,89.88,-0.05498,1.31
0,597.60,90.00,89.88,-0.05655,0.06
0,602.18,90.00,89.88,-0.05498,-0.16
0,606.76,90.00,89.88,-0.05498,0.07
0,611.34,90.00,89.88,-0.05498,1.11
0,615.92,90.00,89.88,-0.05655,0.13
0,612.17,90.00,89.91,-0.05812,-0.73
0,607.39,90.00,89.94,-0.05812,-1.63
0,603.62,90.00,89.96,-0.05969,-2.62
0,589.95,90.00,90.01,-0.05969,-3.03
0,564.89,90.00,90.09,-0.06283,-0.71
0,534.70,90.00,90.18,-0.06754,-0.87
0,496.26,90.00,90.27,-0.06912,-3.34
0,488.07,90.00,90.26,-0.07069,-4.63
0,477.96,90.00,90.26,-0.06912,-2.87
0,472.91,90.00,90.25,-0.06597,-0.43
0,520.11,90.00,90.05,-0.06440,1.77
0,543.30,90.00,89.98,-0.06126,5.69
0,544.98,90.00,89.98,-0.05969,5.69
0,546.73,90.00,89.97,-0.05969,5.41
0,547.64,90.00,89.98,-0.05969,4.23
0,548.53,90.00,89.98,-0.05969,-0.66
0,551.43,90.00,89.97,-0.05655,-0.12
0,573.06,90.00,89.90,-0.05498,2.01
0,586.49,90.00,89.87,-0.05341,2.83
0,591.33,90.00,89.87,-0.05498,2.32
0,595.19,90.00,89.88,-0.05498,0.17
0,599.92,90.00,89.88,-0.05655,-0.99
0,604.67,90.00,89.88,-0.05498,0.27
0,610.40,90.00,89.87,-0.05498,0.68
0,614.19,90.00,89.88,-0.05498,0.81
0,616.92,90.00,89.89,-0.05655,-0.81
0,610.88,90.00,89.92,-0.05812,-1.61
0,605.73,90.00,89.94,-0.05812,-2.45
0,599.61,90.00,89.97,-0.05969,-2.05
0,582.16,90.00,90.04,-0.06126,-1.35
0,552.86,90.00,90.12,-0.06283,-1.53
0,514.37,90.00,90.23,-0.06912,-1.53
0,492.97,90.00,90.27,-0.07069,-3.38
0,483.72,90.00,90.27,-0.07069,-4.59
0,474.54,90.00,90.26,-0.06912,-4.44
0,478.54,90.00,90.21,-0.06283,-1.68
0,535.10,90.00,90.00,-0.06283,3.97
0,546.55,90.00,89.97,-0.05969,3.77
0,548.54,90.00,89.97,-0.05969,5.34
0,549.70,90.00,89.97,-0.05969,5.30
0,550.85,90.00,89.97,-0.05969,-0.72
0,552.01,90.00,89.97,-0.05812,0.07
0,558.23,90.00,89.95,-0.05498,1.58
0,582.10,90.00,89.88,-0.05341,2.83
0,586.57,90.00,89.88,-0.05341,2.26
0,591.04,90.00,89.88,-0.05498,1.09
0,595.51,90.00,89.88,-0.05498,-0.49
0,599.98,90.00,89.88,-0.05498,0.51
0,604.44,90.00,89.88,-0.05498,1.27
0,608.91,90.00,89.88,-0.05498,1.23
0,613.38,90.00,89.88,-0.05498,1.23
0,612.52,90.00,89.90,-0.05655,-0.30
0,607.07,90.00,89.93,-0.05812,-1.54
0,601.35,90.00,89.96,-0.05969,-2.55
0,595.86,90.00,89.98,-0.05969,-2.25
0,571.85,90.00,90.06,-0.06126,-1.85
0,541.26,90.00,90.15,-0.06597,-0.53
0,500.09,90.00,90.26,-0.06912,-4.22
0,491.05,90.00,90.26,-0.07069,-5.15
0,481.10,90.00,90.26,-0.06912,-4.10
0,474.23,90.00,90.25,-0.06754,-1.54
0,505.49,90.00,90.11,-0.06440,2.39
0,539.30,90.00,89.99,-0.06126,2.46
0,542.63,90.00,89.99,-0.05969,5.71
0,545.16,90.00,89.98,-0.05812,5.23
0,546.04,90.00,89.98,-0.05969,-0.91
0,546.85,90.00,89.98,-0.05969,0.09
0,549.70,90.00,89.97,-0.05812,1.07
0,569.14,90.00,89.91,-0.05498,3.01
0,586.46,90.00,89.87,-0.05341,3.01
0,591.20,90.00,89.87,-0.05341,2.35
0,595.16,90.00,89.87,-0.05498,1.30
0,600.00,90.00,89.87,-0.05655,-0.04
0,604.84,90.00,89.87,-0.05498,-0.55
0,609.69,90.00,89.87,-0.05498,0.35
0,614.53,90.00,89.87,-0.05498,1.40
0,617.37,90.00,89.88,-0.05655,-0.54
0,612.47,90.00,89.91,-0.05812,-1.72
0,606.59,90.00,89.94,-0.05812,-2.32
0,601.53,90.00,89.97,-0.05969,-2.93
0,590.54,90.00,90.01,-0.05969,-2.80
0,561.37,90.00,90.10,-0.06283,-0.19
0,525.47,90.00,90.21,-0.06912,-1.67
0,496.21,90.00,90.27,-0.07069,-4.33
0,486.01,90.00,90.27,-0.07069,-5.24
0,476.85,90.00,90.26,-0.06912,-2.30
0,473.82,90.00,90.23,-0.06440,0.46
0,526.91,90.00,90.03,-0.06440,1.57
0,542.54,90.00,89.99,-0.06126,1.57
0,544.08,90.00,89.98,-0.05969,5.98
0,545.75,90.00,89.98,-0.05969,5.87
0,546.54,90.00,89.98,-0.05969,1.42
0,547.32,90.00,89.98,-0.05969,-0.45
0,552.11,90.00,89.97,-0.05655,0.31
0,579.23,90.00,89.88,-0.05341,2.64
0,588.08,90.00,89.87,-0.05341,2.71
0,593.07,90.00,89.87,-0.05498,1.80
0,598.06,90.00,89.87,-0.05498,0.10
0,602.00,90.00,89.87,-0.05498,-0.38
0,607.88,90.00,89.87,-0.05498,-0.18
0,612.87,90.00,89.87,-0.05498,0.71
0,616.86,90.00,89.87,-0.05498,0.40
0,615.67,90.00,89.90,-0.05655,-1.21
0,612.34,90.00,89.92,-0.05812,-1.68
0,605.10,90.00,89.95,-0.05969,-2.71
0,599.78,90.00,89.97,-0.05969,-2.42
0,583.28,90.00,90.04,-0.06126,-0.97
0,551.92,90.00,90.13,-0.06283,-0.97
0,514.45,90.00,90.24,-0.06912,-0.75
0,492.40,90.00,90.27,-0.07069,-3.73
0,483.02,90.00,90.27,-0.07069,-5.09
0,474.76,90.00,90.26,-0.06912,-3.69
0,478.75,90.00,90.21,-0.06283,-1.22
0,536.38,90.00,90.00,-0.06283,1.96
0,544.78,90.00,89.98,-0.05969,3.72
0,546.65,90.00,89.98,-0.05969,5.05
0,548.61,90.00,89.97,-0.05969,5.11
0,549.62,90.00,89.97,-0.05969,-0.67
0,550.62,90.00,89.97,-0.05812,0.02
0,557.72,90.00,89.95,-0.05498,1.65
0,582.50,90.00,89.88,-0.05341,2.72
0,587.08,90.00,89.88,-0.05341,2.13
0,591.66,90.00,89.88,-0.05498,1.15
0,596.25,90.00,89.88,-0.05655,-0.48
0,600.79,90.00,89.88,-0.05498,0.36
0,605.35,90.00,89.88,-0.05498,1.13
0,609.93,90.00,89.88,-0.05498,1.13
0,613.29,90.00,89.88,-0.05655,0.93
0,613.71,90.00,89.90,-0.05655,-0.58
0,609.31,90.00,89.93,-0.05812,-1.53
0,603.82,90.00,89.95,-0.05812,-2.53
0,599.61,90.00,89.97,-0.05969,-2.90
0,576.96,90.00,90.05,-0.06126,-3.22
0,544.83,90.00,90.15,-0.06440,-0.83
0,502.10,90.00,90.26,-0.06912,-3.54
0,491.82,90.00,90.26,-0.07069,-4.89
0,481.69,90.00,90.26,-0.06912,-5.02
0,472.66,90.00,90.26,-0.06754,-1.94
0,494.13,90.00,90.15,-0.06440,1.76
0,539.77,90.00,89.99,-0.06126,2.12
0,548.63,90.00,89.97,-0.05969,6.28
0,550.91,90.00,89.96,-0.05812,6.42
0,552.35,90.00,89.96,-0.05969,-0.56
0,553.77,90.00,89.96,-0.05812,-0.09
0,555.18,90.00,89.96,-0.05812,1.16
0,565.76,90.00,89.93,-0.05498,1.16
0,580.93,90.00,89.89,-0.05341,3.10
0,585.02,90.00,89.89,-0.05498,2.48
0,589.09,90.00,89.89,-0.05498,1.32
0,592.09,90.00,89.90,-0.05655,-0.24
0,596.04,90.00,89.90,-0.05498,-0.46
0,601.06,90.00,89.89,-0.05498,0.28
0,605.15,90.00,89.89,-0.05498,0.98
0,608.18,90.00,89.90,-0.05655,-0.71
0,608.07,90.00,89.91,-0.05812,-1.39
0,602.20,90.00,89.94,-0.05812,-2.75
0,601.34,90.00,89.95,-0.05969,-2.68
0,594.08,90.00,89.98,-0.05969,-2.34
0,563.73,90.00,90.09,-0.06283,-0.43
0,530.46,90.00,90.18,-0.06754,-1.84
0,497.99,90.00,90.26,-0.06912,-4.13
0,488.15,90.00,90.26,-0.07069,-4.74
0,479.33,90.00,90.25,-0.06912,-2.23
0,473.65,90.00,90.24,-0.06597,-0.31
0,523.41,90.00,90.05,-0.06440,-0.31
0,543.90,90.00,89.98,-0.06126,1.37
0,544.68,90.00,89.98,-0.05969,5.09
0,547.55,90.00,89.97,-0.05969,5.88
0,548.55,90.00,89.97,-0.05969,1.75
0,549.56,90.00,89.97,-0.05969,-0.45
0,552.57,90.00,89.97,-0.05655,-0.10
0,575.41,90.00,89.89,-0.05498,2.32
0,586.94,90.00,89.87,-0.05341,2.83
0,590.71,90.00,89.88,-0.05498,1.76
0,595.44,90.00,89.88,-0.05498,0.35
0,600.17,90.00,89.88,-0.05655,-0.53
0,604.90,90.00,89.88,-0.05498,-0.29
0,609.63,90.00,89.88,-0.05498,0.65
0,614.36,90.00,89.88,-0.05498,-0.00
0,616.05,90.00,89.89,-0.05655,-1.30
0,610.92,90.00,89.92,-0.05812,-1.63
0,604.76,90.00,89.95,-0.05812,-2.73
0,601.62,90.00,89.97,-0.05969,-2.16
0,584.51,90.00,90.02,-0.06126,-2.16
0,553.57,90.00,90.12,-0.06283,-1.95
0,520.19,90.00,90.22,-0.06912,0.10
0,494.56,90.00,90.27,-0.07069,-3.78
0,484.34,90.00,90.27,-0.07069,-5.31
0,475.18,90.00,90.26,-0.06912,-3.54
0,477.20,90.00,90.21,-0.06440,-1.40
0,532.43,90.00,90.01,-0.06283,2.25
0,546.64,90.00,89.97,-0.05969,3.30
0,547.65,90.00,89.97,-0.05969,4.94
0,550.83,90.00,89.97,-0.05969,5.45
0,552.09,90.00,89.97,-0.05969,-0.43
0,553.36,90.00,89.97,-0.05812,-0.33
0,558.67,90.00,89.95,-0.05498,1.62
0,581.40,90.00,89.89,-0.05341,2.50
0,585.72,90.00,89.89,-0.05498,2.17
0,590.04,90.00,89.89,-0.05498,0.81
0,594.36,90.00,89.89,-0.05655,-0.72
0,598.68,90.00,89.89,-0.05655,0.35
0,603.00,90.00,89.89,-0.05498,0.35
0,607.10,90.00,89.89,-0.05498,1.13
0,611.42,90.00,89.89,-0.05498,0.97
0,612.68,90.00,89.90,-0.05655,-0.47
0,605.18,90.00,89.93,-0.05812,-1.79
0,603.49,90.00,89.95,-0.05969,-2.63
0,598.38,90.00,89.97,-0.05969,-2.02
0,574.68,90.00,90.05,-0.06126,-1.32
0,545.66,90.00,90.14,-0.06440,-0.69
0,500.88,90.00,90.27,-0.06912,-3.90
0,490.64,90.00,90.26,-0.07069,-4.63
0,480.55,90.00,90.26,-0.06912,-4.14
0,472.54,90.00,90.26,-0.06754,-1.66
0,499.37,90.00,90.13,-0.06440,3.23
0,540.72,90.00,89.99,-0.06126,2.81
0,544.40,90.00,89.98,-0.05969,6.05
0,546.19,90.00,89.98,-0.05812,5.56
0,547.17,90.00,89.98,-0.05969,-0.67
0,548.07,90.00,89.98,-0.05969,0.03
0,550.04,90.00,89.97,-0.05812,0.03
0,564.25,90.00,89.92,-0.05498,1.03
0,585.11,90.00,89.87,-0.05341,3.07
0,589.96,90.00,89.87,-0.05498,2.66
0,594.80,90.00,89.87,-0.05498,1.41
0,599.64,90.00,89.87,-0.05655,-0.23
0,604.48,90.00,89.87,-0.05498,-0.54
0,609.32,90.00,89.87,-0.05498,0.07
0,614.17,90.00,89.87,-0.05498,0.66
0,618.01,90.00,89.88,-0.05655,-0.34
0,611.31,90.00,89.91,-0.05812,-1.11
0,608.49,90.00,89.94,-0.05812,-2.22
0,603.67,90.00,89.96,-0.05969,-2.58
0,590.90,90.00,90.01,-0.05969,-1.95
0,564.86,90.00,90.09,-0.06283,-0.56
0,534.47,90.00,90.18,-0.06754,-2.05
0,495.97,90.00,90.27,-0.06912,-4.17
0,487.67,90.00,90.27,-0.07069,-4.53
0,477.46,90.00,90.26,-0.06912,-2.04
0,472.33,90.00,90.25,-0.06597,-2.04
0,517.74,90.00,90.07,-0.06440,-0.03
0,541.62,90.00,89.99,-0.06126,1.37
0,543.05,90.00,89.99,-0.05969,4.77
0,545.60,90.00,89.98,-0.05969,5.91
0,546.38,90.00,89.98,-0.05969,2.26
0,547.16,90.00,89.98,-0.05969,-0.35
0,549.95,90.00,89.97,-0.05655,-0.17
0,576.73,90.00,89.89,-0.05498,2.38
0,588.54,90.00,89.87,-0.05341,2.83
0,593.64,90.00,89.87,-0.05498,1.91
0,598.75,90.00,89.87,-0.05498,0.43
0,602.80,90.00,89.87,-0.05655,-0.40
0,607.79,90.00,89.87,-0.05498,-0.07
0,612.81,90.00,89.87,-0.05498,0.40
0,617.83,90.00,89.87,-0.05498,0.01
0,616.76,90.00,89.89,-0.05655,-0.92
0,612.47,90.00,89.92,-0.05812,-1.77
0,603.24,90.00,89.96,-0.05969,-3.06
0,592.39,90.00,90.00,-0.05969,-3.06
0,581.18,90.00,90.04,-0.06126,-3.25
0,546.68,90.00,90.14,-0.06440,-0.46
0,506.13,90.00,90.26,-0.06912,-1.89
0,493.09,90.00,90.26,-0.07069,-2.86
0,484.08,90.00,90.26,-0.06912,-4.60
0,475.18,90.00,90.25,-0.06754,-2.08
0,494.84,90.00,90.15,-0.06283,-0.27
0,538.34,90.00,90.00,-0.06126,0.83
0,542.47,90.00,89.99,-0.05969,4.60
0,544.91,90.00,89.98,-0.05969,6.21
0,547.70,90.00,89.98,-0.05969,2.84
0,548.59,90.00,89.98,-0.05969,-0.64
0,549.49,90.00,89.98,-0.05812,-0.16
0,561.57,90.00,89.93,-0.05498,2.01
0,586.17,90.00,89.87,-0.05341,2.97
0,591.16,90.00,89.87,-0.05498,2.10
0,596.16,90.00,89.87,-0.05498,-0.08
0,600.13,90.00,89.87,-0.05655,-0.95
0,605.02,90.00,89.87,-0.05498,-0.95
0,610.67,90.00,89.87,-0.05498,-0.10
0,614.64,90.00,89.87,-0.05498,0.99
0,619.50,90.00,89.88,-0.05655,0.00
0,613.93,90.00,89.91,-0.05655,-1.27
0,611.29,90.00,89.93,-0.05812,-1.92
0,604.71,90.00,89.96,-0.05812,-2.61
0,595.07,90.00,90.00,-0.05969,-2.61
0,568.34,90.00,90.09,-0.06283,-2.65
0,539.96,90.00,90.16,-0.06754,0.34
0,498.16,90.00,90.27,-0.06912,-5.25
0,488.82,90.00,90.27,-0.07069,-4.40
0,479.58,90.00,90.27,-0.06912,-4.48
0,472.48,90.00,90.25,-0.06754,-1.49
0,510.85,90.00,90.09,-0.06440,3.90
0,544.17,90.00,89.98,-0.06126,2.71
0,545.81,90.00,89.98,-0.05969,5.44
0,547.59,90.00,89.98,-0.05969,5.69
0,548.49,90.00,89.98,-0.05969,-0.54
0,549.38,90.00,89.98,-0.05812,-0.54
0,551.23,90.00,89.97,-0.05655,-0.11
0,571.77,90.00,89.90,-0.05498,1.54
0,586.05,90.00,89.88,-0.05341,2.64
0,590.78,90.00,89.88,-0.05498,2.09
0,595.51,90.00,89.88,-0.05498,1.01
0,600.24,90.00,89.88,-0.05655,-0.64
0,604.97,90.00,89.88,-0.05498,0.42
0,609.70,90.00,89.88,-0.05498,1.06
0,614.43,90.00,89.88,-0.05498,0.98
0,616.12,90.00,89.89,-0.05655,-0.61
0,610.99,90.00,89.92,-0.05812,-1.61
0,604.82,90.00,89.95,-0.05812,-2.59
0,600.67,90.00,89.97,-0.05969,-1.97
0,584.38,90.00,90.03,-0.06126,-1.39
0,553.30,90.00,90.12,-0.06283,-1.13
0,517.79,90.00,90.23,-0.06912,-5.09
0,494.04,90.00,90.27,-0.07069,-5.08
0,483.82,90.00,90.27,-0.07069,-4.38
0,475.67,90.00,90.26,-0.06912,-4.38
0,478.32,90.00,90.21,-0.06440,-2.05
0,530.50,90.00,90.02,-0.06283,2.72
0,542.41,90.00,89.99,-0.05969,4.83
0,545.02,90.00,89.98,-0.05969,6.09
0,547.93,90.00,89.97,-0.05969,6.30
0,548.93,90.00,89.97,-0.05969,-0.19
0,549.94,90.00,89.97,-0.05812,0.07
0,556.01,90.00,89.95,-0.05655,1.41
0,582.71,90.00,89.87,-0.05341,2.94
0,588.52,90.00,89.87,-0.05341,2.61
0,593.36,90.00,89.87,-0.05498,1.53
0,597.23,90.00,89.88,-0.05655,-0.05
0,601.97,90.00,89.88,-0.05498,-0.66
0,607.71,90.00,89.87,-0.05498,0.26
0,612.55,90.00,89.87,-0.05498,1.35
0,616.34,90.00,89.88,-0.05655,-0.69
0,612.91,90.00,89.90,-0.05655,-1.51
0,609.33,90.00,89.93,-0.05812,-2.41
0,603.83,90.00,89.95,-0.05969,-2.41
0,596.32,90.00,89.98,-0.05969,-2.87
0,575.23,90.00,90.06,-0.06126,-2.32
0,544.99,90.00,90.15,-0.06440,-0.48
0,500.00,90.00,90.27,-0.06912,-1.63
0,490.63,90.00,90.27,-0.07069,-5.04
0,480.42,90.00,90.27,-0.06912,-4.98
0,472.28,90.00,90.26,-0.06754,-1.62
0,500.01,90.00,90.13,-0.06440,0.84
0,540.38,90.00,89.99,-0.06126,2.71
0,543.95,90.00,89.98,-0.05969,6.05
0,546.68,90.00,89.98,-0.05812,6.07
0,548.65,90.00,89.98,-0.05969,0.67
0,548.58,90.00,89.98,-0.05969,-0.28
0,550.51,90.00,89.97,-0.05812,0.11
0,565.80,90.00,89.92,-0.05498,2.43
0,585.72,90.00,89.87,-0.05341,2.53
0,590.57,90.00,89.87,-0.05498,1.77
0,595.41,90.00,89.87,-0.05498,0.30
0,600.23,90.00,89.87,-0.05655,0.30
0,604.81,90.00,89.87,-0.05498,-0.54
0,609.65,90.00,89.87,-0.05498,-0.30
0,614.49,90.00,89.87,-0.05498,1.01
0,617.29,90.00,89.88,-0.05655,0.50
0,611.52,90.00,89.91,-0.05812,-0.97
0,607.65,90.00,89.94,-0.05812,-1.71
0,602.78,90.00,89.96,-0.05969,-2.65
0,592.95,90.00,90.00,-0.05969,-1.80
0,567.16,90.00,90.09,-0.06283,-1.29
0,533.79,90.00,90.18,-0.06754,0.65
0,496.23,90.00,90.27,-0.07069,-5.08
0,487.94,90.00,90.27,-0.07069,-5.20
0,478.74,90.00,90.26,-0.06912,-3.19
0,472.68,90.00,90.25,-0.06597,-0.52
0,518.81,90.00,90.06,-0.06440,3.39
0,543.79,90.00,89.98,-0.06126,4.96
0,545.40,90.00,89.98,-0.05969,5.70
0,548.22,90.00,89.97,-0.05969,4.79
0,549.23,90.00,89.97,-0.05969,4.79
0,550.18,90.00,89.97,-0.05969,-0.44
0,552.20,90.00,89.97,-0.05655,-0.04
0,574.93,90.00,89.90,-0.05498,1.87
0,586.36,90.00,89.88,-0.05341,2.94
0,591.09,90.00,89.88,-0.05498,2.21
0,595.82,90.00,89.88,-0.05655,0.74
0,600.55,90.00,89.88,-0.05655,-1.00
0,605.28,90.00,89.88,-0.05498,0.60
0,610.01,90.00,89.88,-0.05498,0.67
0,614.74,90.00,89.88,-0.05498,0.56
0,615.43,90.00,89.89,-0.05655,-1.17
0,611.23,90.00,89.92,-0.05812,-1.75
0,605.11,90.00,89.95,-0.05812,-2.64
0,599.94,90.00,89.97,-0.05969,-2.75
0,585.62,90.00,90.02,-0.06126,-2.80
0,555.78,90.00,90.12,-0.06283,-0.54
0,516.32,90.00,90.23,-0.06912,-4.33
0,494.49,90.00,90.27,-0.07069,-4.53
0,484.30,90.00,90.27,-0.07069,-4.53
0,475.64,90.00,90.26,-0.06912,-4.35
0,476.69,90.00,90.22,-0.06440,-1.77
0,529.57,90.00,90.02,-0.06283,1.38
0,542.40,90.00,89.99,-0.06126,4.79
0,544.00,90.00,89.98,-0.05969,6.03
0,546.79,90.00,89.98,-0.05969,6.40
0,547.69,90.00,89.98,-0.05969,-0.06
0,548.58,90.00,89.98,-0.05812,0.18
0,555.56,90.00,89.95,-0.05655,1.43
0,584.40,90.00,89.87,-0.05341,2.73
0,590.48,90.00,89.87,-0.05498,2.60
0,594.60,90.00,89.87,-0.05498,1.53
0,599.59,90.00,89.87,-0.05655,-0.07
0,604.58,90.00,89.87,-0.05498,-0.51
0,609.57,90.00,89.87,-0.05498,0.49
0,614.56,90.00,89.87,-0.05498,1.38
0,619.55,90.00,89.87,-0.05655,-0.82
0,613.21,90.00,89.91,-0.05655,-1.56
0,611.59,90.00,89.92,-0.05812,-1.56
0,605.05,90.00,89.95,-0.05812,-2.45
0,597.56,90.00,89.99,-0.05969,-2.73
0,577.45,90.00,90.06,-0.06126,-2.25
0,545.29,90.00,90.15,-0.06440,-0.75
0,502.32,90.00,90.27,-0.06912,-1.62
0,491.94,90.00,90.27,-0.07069,-4.96
0,481.67,90.00,90.27,-0.06912,-4.46
0,473.48,90.00,90.26,-0.06754,-1.81
0,500.17,90.00,90.13,-0.06283,0.51
0,539.34,90.00,90.00,-0.06126,3.16
0,542.52,90.00,89.99,-0.05969,5.18
0,544.88,90.00,89.98,-0.05969,5.77
0,546.62,90.00,89.98,-0.05969,-0.12
0,547.40,90.00,89.98,-0.05969,-0.08
0,548.18,90.00,89.98,-0.05812,-0.03
0,565.31,90.00,89.92,-0.05498,2.58
0,587.39,90.00,89.87,-0.05341,2.60
0,592.50,90.00,89.87,-0.05498,1.60
0,597.60,90.00,89.87,-0.05498,1.60
0,601.43,90.00,89.87,-0.05655,0.12
0,606.42,90.00,89.87,-0.05655,-0.71
0,612.42,90.00,89.87,-0.05498,0.24
0,616.52,90.00,89.87,-0.05498,1.01
0,619.54,90.00,89.88,-0.05655,0.32
0,611.73,90.00,89.92,-0.05812,-0.86
0,608.82,90.00,89.94,-0.05812,-1.68
0,602.90,90.00,89.96,-0.05969,-2.81
0,590.88,90.00,90.01,-0.05969,-2.56
0,566.84,90.00,90.09,-0.06283,-1.31
0,532.41,90.00,90.19,-0.06754,-1.07
0,496.66,90.00,90.27,-0.07069,-4.24
0,488.36,90.00,90.27,-0.07069,-5.29
0,479.15,90.00,90.26,-0.06912,-3.18
0,474.12,90.00,90.24,-0.06597,-0.04
0,521.48,90.00,90.05,-0.06440,3.03
0,542.52,90.00,89.99,-0.06126,6.30
0,543.99,90.00,89.99,-0.05969,5.68
0,546.58,90.00,89.98,-0.05969,5.68
0,547.32,90.00,89.98,-0.05969,4.73
0,548.11,90.00,89.98,-0.05969,-0.50
0,550.88,90.00,89.97,-0.05655,-0.09
0,577.71,90.00,89.89,-0.05498,1.87
0,589.52,90.00,89.87,-0.05341,2.95
0,593.58,90.00,89.87,-0.05498,2.08
0,598.57,90.00,89.87,-0.05655,-0.22
0,603.56,90.00,89.87,-0.05655,-0.98
0,608.55,90.00,89.87,-0.05498,-0.01
0,613.54,90.00,89.87,-0.05498,0.97
0,618.53,90.00,89.87,-0.05498,0.52
0,616.42,90.00,89.90,-0.05655,-0.79
0,612.05,90.00,89.92,-0.05812,-2.09
0,606.87,90.00,89.95,-0.05812,-2.64
0,599.55,90.00,89.98,-0.05969,-2.08
0,584.95,90.00,90.03,-0.06126,-1.00
0,553.93,90.00,90.13,-0.06283,-1.06
0,513.04,90.00,90.25,-0.06912,-5.75
0,492.87,90.00,90.27,-0.07069,-5.75
0,484.00,90.00,90.27,-0.07069,-4.20
0,475.69,90.00,90.26,-0.06912,-3.93
0,481.76,90.00,90.20,-0.06283,-1.81
0,534.44,90.00,90.01,-0.06283,3.84
0,543.46,90.00,89.99,-0.05969,3.32
0,544.98,90.00,89.98,-0.05969,5.33
0,547.77,90.00,89.98,-0.05969,5.68
0,548.66,90.00,89.98,-0.05969,-0.58
0,549.55,90.00,89.98,-0.05812,-0.52
0,557.51,90.00,89.95,-0.05498,1.48
0,586.46,90.00,89.87,-0.05341,2.76
0,591.56,90.00,89.87,-0.05498,2.36
0,595.67,90.00,89.87,-0.05498,1.30
0,600.66,90.00,89.87,-0.05655,-0.64
0,605.65,90.00,89.87,-0.05655,-0.19
0,610.64,90.00,89.87,-0.05498,0.63
0,615.63,90.00,89.87,-0.05498,1.12
0,619.64,90.00,89.87,-0.05655,-0.38
0,613.08,90.00,89.91,-0.05655,-0.38
0,612.24,90.00,89.92,-0.05812,-1.39
0,605.77,90.00,89.96,-0.05969,-2.28
0,597.21,90.00,89.99,-0.05969,-2.87
0,574.93,90.00,90.07,-0.06126,-3.56
0,544.34,90.00,90.15,-0.06440,-0.78
0,501.23,90.00,90.27,-0.06912,-2.82
0,490.78,90.00,90.27,-0.07069,-4.99
0,481.41,90.00,90.27,-0.06912,-5.15
0,474.25,90.00,90.26,-0.06754,-2.21
0,501.09,90.00,90.12,-0.06440,1.84
0,539.35,90.00,90.00,-0.06126,1.46
0,543.64,90.00,89.99,-0.05969,4.22
0,546.22,90.00,89.98,-0.05812,5.53
0,548.08,90.00,89.98,-0.05969,0.17
0,547.94,90.00,89.98,-0.05969,-0.22
0,549.80,90.00,89.98,-0.05812,0.81
0,568.10,90.00,89.91,-0.05498,2.93
0,587.28,90.00,89.87,-0.05341,2.62
0,592.27,90.00,89.87,-0.05498,2.62
0,596.98,90.00,89.87,-0.05498,1.36
0,600.84,90.00,89.87,-0.05655,0.22
0,605.69,90.00,89.87,-0.05655,-0.32
0,610.53,90.00,89.87,-0.05498,0.18
0,615.37,90.00,89.87,-0.05498,1.31
0,618.23,90.00,89.88,-0.05655,-0.05
0,611.34,90.00,89.92,-0.05812,-1.31
0,608.36,90.00,89.94,-0.05812,-1.99
0,602.40,90.00,89.96,-0.05969,-2.68
0,592.47,90.00,90.00,-0.05969,-2.36
0,563.55,90.00,90.10,-0.06283,-0.81
0,528.70,90.00,90.20,-0.06912,-1.16
0,497.70,90.00,90.27,-0.07069,-3.88
0,488.58,90.00,90.26,-0.07069,-4.88
0,479.52,90.00,90.26,-0.06912,-2.31
0,476.67,90.00,90.23,-0.06440,-0.43
0,524.55,90.00,90.05,-0.06440,1.34
0,541.68,90.00,89.99,-0.06126,4.39
0,544.01,90.00,89.99,-0.05969,4.39
0,546.60,90.00,89.98,-0.05969,6.48
0,547.38,90.00,89.98,-0.05969,1.50
0,548.16,90.00,89.98,-0.05969,-0.45
0,551.94,90.00,89.97,-0.05655,-0.26
0,579.95,90.00,89.88,-0.05498,2.28
0,589.87,90.00,89.87,-0.05341,3.04
0,594.98,90.00,89.87,-0.05498,1.82
0,599.08,90.00,89.87,-0.05655,0.02
0,604.07,90.00,89.87,-0.05655,-0.68
0,609.06,90.00,89.87,-0.05498,-0.03
0,614.05,90.00,89.87,-0.05498,0.67
0,619.05,90.00,89.87,-0.05498,0.13
0,614.81,90.00,89.90,-0.05655,-1.20
0,613.35,90.00,89.92,-0.05812,-1.79
0,606.16,90.00,89.95,-0.05812,-2.98
0,597.68,90.00,89.99,-0.05969,-3.40
0,579.67,90.00,90.05,-0.06126,-1.31
0,545.75,90.00,90.15,-0.06440,-0.42
0,504.99,90.00,90.26,-0.06912,-0.42
0,492.23,90.00,90.27,-0.07069,-4.12
0,482.97,90.00,90.27,-0.07069,-6.00
0,473.81,90.00,90.26,-0.06754,-3.73
0,491.14,90.00,90.16,-0.06283,-0.67
0,538.24,90.00,90.00,-0.06126,2.10
0,545.62,90.00,89.98,-0.05969,6.00
0,549.44,90.00,89.97,-0.05812,5.53
0,551.66,90.00,89.97,-0.05969,4.24
0,552.92,90.00,89.97,-0.05812,-0.34
0,554.19,90.00,89.97,-0.05812,-0.18
0,564.57,90.00,89.93,-0.05498,1.83
0,582.95,90.00,89.89,-0.05341,2.94
0,587.27,90.00,89.89,-0.05498,2.13
0,591.59,90.00,89.89,-0.05498,0.16
0,595.91,90.00,89.89,-0.05655,-0.77
0,600.23,90.00,89.89,-0.05655,-0.21
0,604.55,90.00,89.89,-0.05498,0.63
0,608.87,90.00,89.89,-0.05498,0.49
0,612.18,90.00,89.89,-0.05655,0.49
0,608.00,90.00,89.92,-0.05812,-1.11
0,601.75,90.00,89.95,-0.05969,-2.17
0,597.58,90.00,89.97,-0.05969,-3.15
0,586.50,90.00,90.01,-0.06126,-3.35
0,556.19,90.00,90.11,-0.06283,-0.36
0,514.93,90.00,90.23,-0.06912,-0.73
0,493.21,90.00,90.26,-0.07069,-4.27
0,483.12,90.00,90.26,-0.07069,-5.04
0,474.11,90.00,90.26,-0.06912,-2.12
0,479.31,90.00,90.20,-0.06283,-0.57
0,535.01,90.00,90.00,-0.06283,1.27
0,548.71,90.00,89.96,-0.05969,4.92
0,552.18,90.00,89.96,-0.05812,6.28
0,553.86,90.00,89.96,-0.05969,1.97
0,555.54,90.00,89.96,-0.05812,-0.23
0,557.21,90.00,89.96,-0.05812,-0.49
0,562.89,90.00,89.94,-0.05498,2.35
0,579.73,90.00,89.90,-0.05341,3.06
0,583.68,90.00,89.90,-0.05498,3.06
0,587.43,90.00,89.90,-0.05498,2.00
0,591.38,90.00,89.90,-0.05655,0.24
0,595.33,90.00,89.90,-0.05498,-0.59
0,599.27,90.00,89.90,-0.05498,0.06
0,603.22,90.00,89.90,-0.05498,1.07
0,607.17,90.00,89.90,-0.05655,0.28
0,609.07,90.00,89.90,-0.05812,-0.94
0,601.47,90.00,89.94,-0.05812,-2.12
0,597.44,90.00,89.96,-0.05969,-3.17
0,589.76,90.00,89.99,-0.05969,-2.32
0,562.22,90.00,90.09,-0.06283,-1.26
0,526.89,90.00,90.19,-0.06912,-1.98
0,495.21,90.00,90.26,-0.07069,-3.13
0,486.35,90.00,90.26,-0.07069,-5.06
0,477.57,90.00,90.25,-0.06912,-2.54
0,473.93,90.00,90.23,-0.06440,-0.13
0,524.15,90.00,90.04,-0.06283,0.95
0,546.99,90.00,89.97,-0.06126,5.72
0,549.36,90.00,89.96,-0.05969,5.72
0,552.81,90.00,89.96,-0.05969,6.37
0,553.39,90.00,89.96,-0.05812,1.52
0,554.92,90.00,89.96,-0.05812,-0.06
0,558.50,90.00,89.95,-0.05655,0.05
0,577.89,90.00,89.89,-0.05498,2.72
0,584.04,90.00,89.89,-0.05498,2.49
0,588.25,90.00,89.89,-0.05498,1.69
0,592.46,90.00,89.89,-0.05655,0.29
0,596.67,90.00,89.89,-0.05655,-0.31
0,600.88,90.00,89.89,-0.05498,-0.13
0,605.08,90.00,89.89,-0.05498,1.16
0,609.29,90.00,89.89,-0.05655,0.03
0,610.44,90.00,89.90,-0.05655,-1.14
0,603.96,90.00,89.93,-0.05812,-1.67
0,600.16,90.00,89.95,-0.05969,-2.45
0,592.74,90.00,89.99,-0.05969,-3.06
0,568.47,90.00,90.07,-0.06283,-0.41
0,536.73,90.00,90.16,-0.06754,-1.59
0,498.00,90.00,90.26,-0.06912,-1.59
0,489.66,90.00,90.26,-0.07069,-3.81
0,480.93,90.00,90.25,-0.06912,-4.66
0,474.35,90.00,90.24,-0.06754,-2.00
0,511.18,90.00,90.08,-0.06440,0.55
0,543.57,90.00,89.98,-0.06126,2.42
0,547.46,90.00,89.97,-0.05969,5.36
0,550.65,90.00,89.96,-0.05969,5.93
0,552.06,90.00,89.96,-0.05969,0.01
0,553.48,90.00,89.96,-0.05812,-0.11
0,554.89,90.00,89.96,-0.05655,0.38
0,572.73,90.00,89.90,-0.05498,2.92
0,584.85,90.00,89.88,-0.05498,2.41
0,589.32,90.00,89.88,-0.05498,1.54
0,593.79,90.00,89.88,-0.05655,-0.00
0,598.26,90.00,89.88,-0.05655,-0.43
0,602.73,90.00,89.88,-0.05498,0.20
0,607.20,90.00,89.88,-0.05498,1.04
0,611.67,90.00,89.88,-0.05498,-0.11
0,614.07,90.00,89.89,-0.05655,-0.11
0,608.65,90.00,89.92,-0.05812,-1.30
0,604.37,90.00,89.94,-0.05812,-2.22
0,603.44,90.00,89.96,-0.05969,-2.59
0,584.64,90.00,90.02,-0.06126,-2.27
0,549.44,90.00,90.13,-0.06283,-0.76
0,515.65,90.00,90.23,-0.06912,-2.52
0,496.23,90.00,90.26,-0.07069,-2.71
0,486.39,90.00,90.26,-0.07069,-4.75
0,478.61,90.00,90.25,-0.06912,-2.02
0,486.21,90.00,90.18,-0.06283,-0.32
0,533.39,90.00,90.01,-0.06283,1.40
0,540.14,90.00,89.99,-0.05969,4.71
0,542.36,90.00,89.99,-0.05969,6.00
0,545.99,90.00,89.98,-0.05969,1.93
0,546.77,90.00,89.98,-0.05969,-0.40
0,547.55,90.00,89.98,-0.05812,-0.05
0,559.53,90.00,89.94,-0.05498,2.32
0,588.16,90.00,89.86,-0.05341,3.06
0,593.53,90.00,89.86,-0.05498,3.06
0,598.62,90.00,89.86,-0.05498,1.96
0,602.99,90.00,89.86,-0.05655,-0.01
0,608.20,90.00,89.86,-0.05655,-0.69
0,614.40,90.00,89.86,-0.05498,-0.08
0,619.70,90.00,89.86,-0.05498,0.74
0,621.97,90.00,89.87,-0.05655,0.50
0,614.38,90.00,89.91,-0.05812,-1.19
0,612.65,90.00,89.93,-0.05812,-1.50
0,602.91,90.00,89.97,-0.05969,-2.77
0,594.83,90.00,90.00,-0.05969,-2.28
0,574.30,90.00,90.07,-0.06283,-1.39
0,537.39,90.00,90.18,-0.06597,-0.61
0,498.17,90.00,90.28,-0.06912,-3.79
0,489.69,90.00,90.27,-0.07069,-4.93
0,480.44,90.00,90.27,-0.06912,-3.78
0,474.36,90.00,90.25,-0.06597,-0.96
0,513.91,90.00,90.09,-0.06440,3.20
0,541.12,90.00,90.00,-0.06126,4.79
0,542.28,90.00,89.99,-0.05969,4.79
0,546.59,90.00,89.98,-0.05969,5.70
0,547.37,90.00,89.98,-0.05969,4.86
0,548.15,90.00,89.98,-0.05969,-0.70
0,549.93,90.00,89.97,-0.05812,-0.02
0,573.41,90.00,89.90,-0.05498,2.06
0,590.06,90.00,89.86,-0.05341,2.82
0,594.21,90.00,89.87,-0.05498,2.13
0,599.31,90.00,89.87,-0.05498,0.39
0,604.41,90.00,89.87,-0.05655,-1.29
0,609.51,90.00,89.87,-0.05498,0.29
0,614.62,90.00,89.87,-0.05498,0.75
0,619.72,90.00,89.87,-0.05498,0.72
0,617.73,90.00,89.89,-0.05655,-0.79
0,613.38,90.00,89.92,-0.05812,-1.69
0,606.26,90.00,89.95,-0.05812,-2.64
0,597.75,90.00,89.99,-0.05969,-2.21
0,585.98,90.00,90.03,-0.06126,-0.97
0,556.18,90.00,90.12,-0.06283,-1.75
0,515.46,90.00,90.24,-0.06912,-1.75
0,496.04,90.00,90.27,-0.07069,-4.78
0,485.80,90.00,90.27,-0.07069,-4.63
0,477.62,90.00,90.26,-0.06912,-4.13
0,480.77,90.00,90.21,-0.06440,-1.71
0,532.06,90.00,90.02,-0.06283,4.15
0,542.84,90.00,89.99,-0.06126,2.83
0,544.28,90.00,89.99,-0.05969,5.54
0,545.85,90.00,89.98,-0.05969,5.72
0,546.49,90.00,89.98,-0.05969,-0.71
0,547.12,90.00,89.98,-0.05812,-0.36
0,555.85,90.00,89.95,-0.05655,1.45
0,588.95,90.00,89.85,-0.05341,2.70
0,594.45,90.00,89.86,-0.05341,2.30
0,599.93,90.00,89.86,-0.05498,1.35
0,605.40,90.00,89.86,-0.05655,-0.35
0,610.82,90.00,89.86,-0.05655,0.09
0,615.21,90.00,89.86,-0.05498,0.63
0,621.60,90.00,89.86,-0.05498,0.77
0,623.96,90.00,89.87,-0.05498,0.77
0,616.28,90.00,89.91,-0.05655,-0.35
0,614.63,90.00,89.92,-0.05812,-1.62
0,604.07,90.00,89.97,-0.05969,-2.63
0,594.91,90.00,90.00,-0.05969,-3.05
0,577.41,90.00,90.06,-0.06126,-2.15
0,540.80,90.00,90.17,-0.06597,-0.45
0,502.03,90.00,90.27,-0.06912,-3.44
0,491.62,90.00,90.27,-0.07069,-4.75
0,482.25,90.00,90.27,-0.06912,-4.43
0,476.16,90.00,90.25,-0.06754,-1.70
0,506.22,90.00,90.11,-0.06440,2.02
0,539.67,90.00,90.00,-0.06126,2.78
0,542.75,90.00,89.99,-0.05969,5.41
0,545.01,90.00,89.99,-0.05969,5.49
0,545.61,90.00,89.99,-0.05969,-0.87
0,547.15,90.00,89.98,-0.05969,0.16
0,548.77,90.00,89.98,-0.05812,1.02
0,571.99,90.00,89.90,-0.05498,3.12
0,590.67,90.00,89.86,-0.05341,3.12
0,595.77,90.00,89.86,-0.05498,2.65
0,601.13,90.00,89.86,-0.05498,1.29
0,605.45,90.00,89.86,-0.05655,-0.14
0,610.66,90.00,89.86,-0.05498,-0.75
0,615.88,90.00,89.86,-0.05498,0.27
0,621.09,90.00,89.87,-0.05498,1.62
0,619.05,90.00,89.89,-0.05655,-0.50
0,614.98,90.00,89.91,-0.05812,-1.16
0,609.05,90.00,89.94,-0.05812,-2.09
0,600.77,90.00,89.98,-0.05969,-2.73
0,588.28,90.00,90.02,-0.06126,-2.56
0,555.41,90.00,90.13,-0.06283,-0.69
0,521.65,90.00,90.22,-0.06912,-2.72
0,495.96,90.00,90.27,-0.07069,-5.14
0,485.58,90.00,90.27,-0.07069,-4.62
0,477.29,90.00,90.26,-0.06912,-2.15
0,479.32,90.00,90.22,-0.06440,1.12
0,531.28,90.00,90.02,-0.06283,2.59
0,545.09,90.00,89.98,-0.05969,2.59
0,546.77,90.00,89.98,-0.05969,4.55
0,549.75,90.00,89.97,-0.05969,6.06
0,550.77,90.00,89.97,-0.05969,0.36
0,551.78,90.00,89.97,-0.05812,-0.18
0,556.86,90.00,89.96,-0.05655,0.73
0,583.43,90.00,89.88,-0.05341,2.80
0,589.13,90.00,89.88,-0.05498,2.60
0,593.86,90.00,89.88,-0.05498,1.25
0,598.59,90.00,89.88,-0.05655,0.15
0,603.32,90.00,89.88,-0.05655,-0.53
0,608.05,90.00,89.88,-0.05498,0.47
0,612.78,90.00,89.88,-0.05498,1.00
0,616.46,90.00,89.88,-0.05655,-0.38
0,612.84,90.00,89.91,-0.05812,-1.40
0,608.03,90.00,89.93,-0.05812,-2.42
0,603.30,90.00,89.96,-0.05969,-2.57
0,595.75,90.00,89.99,-0.05969,-3.00
0,571.49,90.00,90.07,-0.06283,0.24
0,537.53,90.00,90.17,-0.06597,0.24
0,498.08,90.00,90.27,-0.06912,-1.40
0,489.72,90.00,90.27,-0.07069,-3.84
0,480.50,90.00,90.26,-0.06912,-4.58
0,473.53,90.00,90.25,-0.06754,-1.87
0,508.84,90.00,90.10,-0.06440,0.60
0,544.00,90.00,89.98,-0.06126,3.45
0,546.78,90.00,89.98,-0.05969,5.51
0,549.73,90.00,89.97,-0.05812,5.74
0,550.89,90.00,89.97,-0.05969,-0.53
0,552.04,90.00,89.97,-0.05969,-0.20
0,554.18,90.00,89.97,-0.05655,0.25
0,572.83,90.00,89.90,-0.05498,2.83
0,587.11,90.00,89.88,-0.05341,2.53
0,591.84,90.00,89.88,-0.05498,1.74
0,596.57,90.00,89.88,-0.05498,0.00
0,601.30,90.00,89.88,-0.05655,-0.28
0,606.03,90.00,89.88,-0.05498,0.18
0,610.76,90.00,89.88,-0.05498,0.87
0,615.49,90.00,89.88,-0.05498,0.87
0,615.95,90.00,89.89,-0.05655,-0.15
0,610.70,90.00,89.92,-0.05812,-1.08
0,605.49,90.00,89.95,-0.05969,-1.76
0,598.13,90.00,89.98,-0.05969,-2.72
0,584.51,90.00,90.03,-0.06126,-2.73
0,553.58,90.00,90.13,-0.06283,-1.22
0,512.73,90.00,90.25,-0.06912,-2.35
0,493.73,90.00,90.27,-0.07069,-3.49
0,483.51,90.00,90.27,-0.07069,-4.47
0,475.37,90.00,90.26,-0.06912,-2.63
0,483.63,90.00,90.19,-0.06283,0.41
0,535.71,90.00,90.01,-0.06283,0.96
0,545.96,90.00,89.98,-0.05969,5.80
0,548.89,90.00,89.97,-0.05812,6.31
0,551.11,90.00,89.97,-0.05969,2.21
0,552.38,90.00,89.97,-0.05812,-0.45
0,553.64,90.00,89.97,-0.05812,0.00
0,561.00,90.00,89.95,-0.05498,2.53
0,583.99,90.00,89.88,-0.05498,2.53
0,587.34,90.00,89.88,-0.05498,2.77
0,591.81,90.00,89.88,-0.05498,1.77
0,596.28,90.00,89.88,-0.05655,0.45
0,600.75,90.00,89.88,-0.05655,-0.25
0,605.22,90.00,89.88,-0.05498,0.29
0,609.69,90.00,89.88,-0.05498,0.95
0,614.16,90.00,89.88,-0.05655,-0.35
0,611.43,90.00,89.91,-0.05812,-1.29
0,605.59,90.00,89.94,-0.05812,-2.15
0,602.74,90.00,89.95,-0.05969,-3.01
0,594.29,90.00,89.99,-0.05969,-2.77
0,563.73,90.00,90.09,-0.06283,-0.55
0,534.29,90.00,90.18,-0.06754,-0.67
0,497.08,90.00,90.27,-0.07069,-3.90
0,489.00,90.00,90.26,-0.07069,-5.38
0,479.05,90.00,90.26,-0.06912,-2.35
0,474.23,90.00,90.24,-0.06597,-0.62
0,518.50,90.00,90.06,-0.06440,0.95
0,544.50,90.00,89.98,-0.06126,0.95
0,547.29,90.00,89.97,-0.05969,5.18
0,551.39,90.00,89.96,-0.05969,6.47
0,551.70,90.00,89.97,-0.05969,1.64
0,552.96,90.00,89.97,-0.05812,-0.39
0,555.25,90.00,89.96,-0.05655,-0.03
0,577.25,90.00,89.89,-0.05498,2.51
0,586.64,90.00,89.88,-0.05498,2.91
0,591.22,90.00,89.88,-0.05498,1.76
0,595.80,90.00,89.88,-0.05655,0.24
0,600.39,90.00,89.88,-0.05655,-0.33
0,604.97,90.00,89.88,-0.05498,0.08
0,609.55,90.00,89.88,-0.05498,0.53
0,614.13,90.00,89.88,-0.05498,0.11
0,614.64,90.00,89.90,-0.05655,-1.15
0,608.20,90.00,89.93,-0.05812,-2.10
0,604.76,90.00,89.95,-0.05969,-2.57
0,599.62,90.00,89.97,-0.05969,-2.56
0,578.09,90.00,90.05,-0.06126,-1.05
0,545.10,90.00,90.15,-0.06440,-1.05
0,506.96,90.00,90.25,-0.06912,-0.40
0,493.00,90.00,90.26,-0.07069,-3.75
0,484.03,90.00,90.26,-0.06912,-5.20
0,476.11,90.00,90.25,-0.06754,-2.90
0,493.73,90.00,90.15,-0.06283,-0.63
0,538.11,90.00,90.00,-0.06283,1.19
0,543.31,90.00,89.99,-0.05969,4.97
0,545.89,90.00,89.98,-0.05812,5.61
0,548.83,90.00,89.97,-0.05969,4.02
0,549.83,90.00,89.97,-0.05812,-0.49
0,550.84,90.00,89.97,-0.05812,-0.15
0,565.13,90.00,89.92,-0.05498,2.22
0,588.09,90.00,89.87,-0.05341,2.94
0,593.19,90.00,89.87,-0.05498,1.93
0,597.23,90.00,89.87,-0.05498,0.01
0,602.23,90.00,89.87,-0.05655,-1.04
0,607.22,90.00,89.87,-0.05655,0.20
0,612.21,90.00,89.87,-0.05498,1.09
0,617.20,90.00,89.87,-0.05498,1.09
0,619.93,90.00,89.88,-0.05655,0.23
0,611.06,90.00,89.92,-0.05812,-1.09
0,609.02,90.00,89.94,-0.05812,-1.66
0,602.04,90.00,89.97,-0.05969,-3.04
0,590.88,90.00,90.01,-0.05969,-2.45
0,564.80,90.00,90.10,-0.06283,-1.48
0,526.99,90.00,90.20,-0.06912,-0.93
0,496.81,90.00,90.27,-0.07069,-3.43
0,487.55,90.00,90.27,-0.07069,-5.55
0,479.36,90.00,90.26,-0.06912,-3.53
0,476.58,90.00,90.23,-0.06440,-0.97
0,523.42,90.00,90.05,-0.06440,2.65
0,542.52,90.00,89.99,-0.06126,3.98
0,545.00,90.00,89.98,-0.05969,5.57
0,548.77,90.00,89.97,-0.05969,4.84
0,549.78,90.00,89.97,-0.05969,-0.32
0,550.78,90.00,89.97,-0.05969,-0.52
0,554.80,90.00,89.96,-0.05655,1.63
0,580.99,90.00,89.88,-0.05498,1.63
0,589.59,90.00,89.87,-0.05498,2.70
0,594.58,90.00,89.87,-0.05498,2.05
0,599.57,90.00,89.87,-0.05655,0.55
0,603.50,90.00,89.87,-0.05655,-1.43
0,608.40,90.00,89.87,-0.05498,-0.05
0,614.36,90.00,89.87,-0.05498,0.86
0,618.31,90.00,89.87,-0.05655,0.60
0,615.02,90.00,89.90,-0.05655,-1.18
0,610.40,90.00,89.93,-0.05812,-2.07
0,606.98,90.00,89.95,-0.05812,-2.80
0,601.76,90.00,89.97,-0.05969,-2.45
0,582.27,90.00,90.04,-0.06126,-2.96
0,547.43,90.00,90.15,-0.06283,-0.56
0,509.98,90.00,90.25,-0.06912,-4.07
0,494.01,90.00,90.26,-0.07069,-4.63
0,484.89,90.00,90.26,-0.07069,-3.84
0,477.89,90.00,90.25,-0.06754,-1.60
0,492.48,90.00,90.16,-0.06283,1.82
0,536.42,90.00,90.01,-0.06283,1.82
0,539.17,90.00,90.00,-0.05969,4.14
0,541.12,90.00,90.00,-0.05969,5.90
0,544.45,90.00,89.99,-0.05969,5.84
0,544.97,90.00,89.99,-0.05969,-0.44
0,545.49,90.00,89.99,-0.05812,0.13
0,559.18,90.00,89.94,-0.05498,1.14
0,590.96,90.00,89.85,-0.05341,3.10
0,596.70,90.00,89.85,-0.05498,2.53
0,602.44,90.00,89.85,-0.05498,1.17
0,607.13,90.00,89.85,-0.05655,-0.27
0,612.76,90.00,89.85,-0.05655,-0.66
0,618.38,90.00,89.85,-0.05498,0.36
0,624.01,90.00,89.85,-0.05498,1.03
0,624.45,90.00,89.87,-0.05655,-0.31
0,617.99,90.00,89.91,-0.05655,-1.44
0,615.36,90.00,89.93,-0.05812,-2.10
0,605.71,90.00,89.97,-0.05969,-2.86
0,595.48,90.00,90.00,-0.05969,-2.56
0,576.85,90.00,90.07,-0.06126,-2.56
0,541.28,90.00,90.17,-0.06440,-1.20
0,504.57,90.00,90.27,-0.06912,-1.85
0,493.18,90.00,90.27,-0.07069,-4.42
0,482.83,90.00,90.27,-0.06912,-4.43
0,476.61,90.00,90.26,-0.06754,-2.44
0,504.47,90.00,90.12,-0.06440,0.30
0,536.56,90.00,90.01,-0.06126,1.12
0,539.13,90.00,90.01,-0.05969,5.16
0,542.95,90.00,89.99,-0.05969,5.97
0,546.45,90.00,89.98,-0.05969,1.43
0,547.09,90.00,89.98,-0.05969,-0.41
0,547.72,90.00,89.98,-0.05812,0.04
0,567.77,90.00,89.91,-0.05498,2.58
0,591.20,90.00,89.86,-0.05498,2.86
0,596.67,90.00,89.86,-0.05498,1.88
0,601.11,90.00,89.86,-0.05655,0.22
0,606.48,90.00,89.86,-0.05655,-0.66
0,611.84,90.00,89.86,-0.05655,-0.00
0,617.20,90.00,89.86,-0.05498,-0.00
0,622.30,90.00,89.86,-0.05498,1.11
0,619.45,90.00,89.89,-0.05655,0.22
0,616.33,90.00,89.91,-0.05812,-1.18
0,613.55,90.00,89.93,-0.05812,-1.85
0,606.79,90.00,89.96,-0.05812,-2.78
0,595.98,90.00,90.00,-0.05969,-2.37
0,567.00,90.00,90.10,-0.06283,-1.72
0,535.09,90.00,90.19,-0.06754,0.46
0,498.51,90.00,90.28,-0.06912,-4.81
0,490.05,90.00,90.27,-0.07069,-4.94
0,480.68,90.00,90.27,-0.06912,-4.32
0,475.56,90.00,90.25,-0.06597,-1.45
0,517.44,90.00,90.07,-0.06440,4.67
0,541.91,90.00,90.00,-0.06126,2.81
0,543.07,90.00,89.99,-0.05969,5.44
0,547.42,90.00,89.98,-0.05969,5.59
0,548.20,90.00,89.98,-0.05969,-0.65
0,548.97,90.00,89.98,-0.05969,-0.26
0,551.73,90.00,89.97,-0.05655,-0.26
0,577.31,90.00,89.89,-0.05498,1.48
0,592.25,90.00,89.86,-0.05341,3.13
0,597.62,90.00,89.86,-0.05498,2.43
0,601.98,90.00,89.86,-0.05655,0.76
0,607.20,90.00,89.86,-0.05655,-0.96
0,612.41,90.00,89.86,-0.05498,-0.05
0,617.63,90.00,89.86,-0.05498,0.51
0,621.86,90.00,89.87,-0.05498,0.69
0,616.69,90.00,89.90,-0.05655,-0.47
0,615.25,90.00,89.92,-0.05812,-1.90
0,607.03,90.00,89.96,-0.05812,-2.81
0,601.47,90.00,89.98,-0.05969,-2.21
0,589.04,90.00,90.03,-0.06126,-2.16
0,550.90,90.00,90.14,-0.06283,-1.00
0,515.58,90.00,90.24,-0.06912,-5.35
0,495.65,90.00,90.27,-0.07069,-5.31
0,486.35,90.00,90.27,-0.07069,-4.41
0,479.19,90.00,90.25,-0.06912,-1.30
0,484.57,90.00,90.20,-0.06283,-1.30
0,531.35,90.00,90.03,-0.06283,2.95
0,539.76,90.00,90.00,-0.06126,3.17
0,540.69,90.00,90.00,-0.05969,5.98
0,546.01,90.00,89.98,-0.05969,6.07
0,546.64,90.00,89.98,-0.05969,-0.59
0,547.27,90.00,89.98,-0.05812,0.04
0,554.97,90.00,89.96,-0.05655,1.06
0,589.93,90.00,89.85,-0.05498,3.20
0,595.55,90.00,89.85,-0.05498,2.77
0,600.20,90.00,89.86,-0.05498,1.40
0,605.67,90.00,89.86,-0.05655,-0.22
0,611.15,90.00,89.86,-0.05655,-0.54
0,616.62,90.00,89.86,-0.05498,0.17
0,621.09,90.00,89.86,-0.05498,0.94
0,622.42,90.00,89.87,-0.05655,-0.48
0,617.83,90.00,89.91,-0.05655,-1.51
0,615.24,90.00,89.92,-0.05812,-1.90
0,607.77,90.00,89.96,-0.05812,-2.49
0,597.96,90.00,89.99,-0.05969,-2.49
0,580.73,90.00,90.05,-0.06126,-2.35
0,543.36,90.00,90.17,-0.06440,-1.29
0,503.93,90.00,90.27,-0.06912,-2.11
0,492.44,90.00,90.27,-0.07069,-3.67
0,481.97,90.00,90.27,-0.06912,-4.53
0,474.67,90.00,90.26,-0.06754,-2.62
0,497.11,90.00,90.14,-0.06440,0.52
0,539.73,90.00,90.00,-0.06126,1.69
0,546.00,90.00,89.98,-0.05969,6.07
0,548.67,90.00,89.97,-0.05812,6.00
0,550.65,90.00,89.97,-0.05969,0.42
0,551.65,90.00,89.97,-0.05812,-0.33
0,552.66,90.00,89.97,-0.05812,0.08
0,566.94,90.00,89.92,-0.05498,2.37
0,587.80,90.00,89.87,-0.05498,2.78
0,592.64,90.00,89.87,-0.05498,1.49
0,597.49,90.00,89.87,-0.05655,-0.19
0,602.29,90.00,89.88,-0.05655,-0.56
0,606.07,90.00,89.88,-0.05655,-0.56
0,611.60,90.00,89.87,-0.05498,0.42
0,616.44,90.00,89.87,-0.05498,1.21
0,619.22,90.00,89.88,-0.05655,0.02
0,610.19,90.00,89.92,-0.05812,-1.11
0,608.01,90.00,89.94,-0.05812,-1.63
0,604.07,90.00,89.96,-0.05969,-2.54
0,594.34,90.00,90.00,-0.05969,-2.59
0,561.23,90.00,90.11,-0.06283,-0.82
0,528.10,90.00,90.20,-0.06912,-0.90
0,495.92,90.00,90.27,-0.07069,-4.04
0,486.52,90.00,90.27,-0.07069,-5.39
0,478.21,90.00,90.26,-0.06912,-3.11
0,475.18,90.00,90.24,-0.06440,-0.43
0,526.14,90.00,90.04,-0.06440,2.20
0,542.59,90.00,89.99,-0.06126,5.14
0,544.06,90.00,89.99,-0.05969,5.43
0,547.70,90.00,89.98,-0.05969,3.90
0,548.59,90.00,89.98,-0.05969,-0.79
0,549.49,90.00,89.98,-0.05969,-0.79
0,553.34,90.00,89.96,-0.05655,-0.16
0,583.54,90.00,89.87,-0.05498,2.01
0,592.76,90.00,89.86,-0.05498,2.90
0,598.12,90.00,89.86,-0.05498,1.88
0,603.48,90.00,89.86,-0.05655,0.19
0,607.73,90.00,89.86,-0.05655,-0.93
0,612.95,90.00,89.86,-0.05498,-0.06
0,618.18,90.00,89.86,-0.05498,1.05
0,621.44,90.00,89.87,-0.05655,0.50
0,616.02,90.00,89.90,-0.05655,-1.10
0,613.47,90.00,89.92,-0.05812,-2.07
0,607.04,90.00,89.96,-0.05812,-2.68
0,600.44,90.00,89.98,-0.05969,-1.77
0,582.63,90.00,90.04,-0.06126,-2.43
0,545.75,90.00,90.16,-0.06440,-1.27
0,507.79,90.00,90.26,-0.06912,-4.19
0,494.62,90.00,90.27,-0.07069,-4.94
0,484.41,90.00,90.27,-0.06912,-3.97
0,477.31,90.00,90.26,-0.06754,-3.97
0,490.19,90.00,90.17,-0.06283,-1.55
0,535.83,90.00,90.01,-0.06283,4.64
0,542.65,90.00,89.99,-0.05969,2.68
0,544.98,90.00,89.98,-0.05812,5.72
0,548.74,90.00,89.98,-0.05969,5.67
0,549.63,90.00,89.98,-0.05969,-0.63
0,550.53,90.00,89.98,-0.05812,-0.25
0,561.56,90.00,89.94,-0.05498,1.42
0,588.06,90.00,89.87,-0.05498,3.09
0,593.16,90.00,89.87,-0.05498,2.29
0,598.26,90.00,89.87,-0.05655,0.90
0,602.34,90.00,89.87,-0.05655,-0.39
0,607.33,90.00,89.87,-0.05655,0.32
0,613.35,90.00,89.87,-0.05498,1.03
0,617.45,90.00,89.87,-0.05498,1.14
0,619.42,90.00,89.88,-0.05655,-0.15
0,613.44,90.00,89.92,-0.05812,-1.60
0,610.54,90.00,89.93,-0.05812,-2.53
0,606.84,90.00,89.95,-0.05812,-2.53
0,599.33,90.00,89.99,-0.05969,-2.73
0,572.03,90.00,90.08,-0.06126,-2.98
0,538.78,90.00,90.17,-0.06597,0.53
0,500.85,90.00,90.27,-0.06912,-2.55
0,491.54,90.00,90.27,-0.07069,-4.51
0,481.33,90.00,90.27,-0.06912,-4.87
0,475.30,90.00,90.25,-0.06754,-2.34
0,511.75,90.00,90.09,-0.06440,1.50
0,539.73,90.00,90.00,-0.06126,2.31
0,540.61,90.00,90.00,-0.05969,4.94
0,544.68,90.00,89.99,-0.05969,5.72
0,546.28,90.00,89.98,-0.05969,0.22
0,546.91,90.00,89.98,-0.05969,0.20
0,548.54,90.00,89.98,-0.05812,0.69
0,573.90,90.00,89.89,-0.05498,2.94
0,592.87,90.00,89.85,-0.05498,2.83
0,598.49,90.00,89.85,-0.05498,1.14
0,604.11,90.00,89.85,-0.05655,-0.08
0,608.65,90.00,89.86,-0.05655,-0.08
0,613.85,90.00,89.86,-0.05655,-0.30
0,619.32,90.00,89.86,-0.05498,0.31
0,623.81,90.00,89.86,-0.05655,0.97
0,619.93,90.00,89.89,-0.05655,-0.15
0,615.72,90.00,89.92,-0.05812,-1.50
0,610.72,90.00,89.94,-0.05812,-2.34
0,603.49,90.00,89.97,-0.05812,-2.59
0,594.25,90.00,90.01,-0.05969,-2.29
0,559.92,90.00,90.12,-0.06283,-1.05
0,527.23,90.00,90.21,-0.06912,-0.57
0,498.90,90.00,90.27,-0.07069,-3.59
0,488.54,90.00,90.27,-0.07069,-5.13
0,480.25,90.00,90.26,-0.06912,-2.61
0,478.19,90.00,90.23,-0.06440,0.02
0,528.34,90.00,90.04,-0.06440,0.51
0,541.51,90.00,90.00,-0.06126,4.97
0,542.51,90.00,90.00,-0.05969,5.79
0,546.76,90.00,89.98,-0.05969,3.08
0,547.40,90.00,89.98,-0.05969,3.08
0,548.00,90.00,89.98,-0.05969,-0.43
0,551.65,90.00,89.97,-0.05655,0.04
0,584.75,90.00,89.86,-0.05498,2.32
0,595.20,90.00,89.85,-0.05498,2.88
0,599.83,90.00,89.86,-0.05498,1.84
0,605.31,90.00,89.86,-0.05655,0.08
0,610.79,90.00,89.86,-0.05655,-0.97
0,616.26,90.00,89.86,-0.05655,0.15
0,621.74,90.00,89.86,-0.05498,1.23
0,624.11,90.00,89.87,-0.05655,0.38
0,617.80,90.00,89.90,-0.05655,-1.35
0,614.20,90.00,89.93,-0.05812,-2.05
0,606.61,90.00,89.96,-0.05812,-2.64
0,600.85,90.00,89.98,-0.05969,-2.60
0,588.18,90.00,90.03,-0.06126,-0.99
0,549.73,90.00,90.15,-0.06283,-1.83
0,510.93,90.00,90.26,-0.06912,-4.98
0,494.65,90.00,90.27,-0.07069,-4.35
0,485.23,90.00,90.27,-0.07069,-4.35
0,476.43,90.00,90.27,-0.06912,-4.57
0,485.47,90.00,90.19,-0.06283,-1.53
0,535.40,90.00,90.02,-0.06283,3.66
0,541.04,90.00,90.00,-0.05969,3.15
0,542.08,90.00,89.99,-0.05969,5.33
0,546.49,90.00,89.98,-0.05969,5.85
0,547.13,90.00,89.98,-0.05969,-0.58
0,547.76,90.00,89.98,-0.05812,-0.17
0,557.54,90.00,89.95,-0.05655,1.36
0,589.76,90.00,89.86,-0.05498,3.23
0,595.24,90.00,89.86,-0.05498,2.23
0,600.71,90.00,89.86,-0.05655,0.91
0,605.16,90.00,89.86,-0.05655,-0.82
0,610.52,90.00,89.86,-0.05655,0.09
0,615.88,90.00,89.86,-0.05498,1.21
0,621.25,90.00,89.86,-0.05498,1.47
0,621.57,90.00,89.88,-0.05655,-0.31
0,615.75,90.00,89.91,-0.05812,-1.76
0,613.98,90.00,89.93,-0.05812,-1.76
0,607.26,90.00,89.96,-0.05812,-2.24
0,600.59,90.00,89.99,-0.05969,-2.69
0,578.57,90.00,90.06,-0.06126,-3.03
0,540.82,90.00,90.17,-0.06440,-1.05
0,504.06,90.00,90.27,-0.06912,-3.66
0,493.69,90.00,90.27,-0.07069,-5.85
0,483.44,90.00,90.27,-0.06912,-5.35
0,475.32,90.00,90.26,-0.06754,-2.49
0,504.14,90.00,90.12,-0.06440,1.64
0,538.30,90.00,90.01,-0.06126,2.07
0,539.04,90.00,90.01,-0.05969,4.56
0,542.90,90.00,89.99,-0.05812,5.53
0,546.42,90.00,89.98,-0.05969,0.40
0,547.06,90.00,89.98,-0.05969,0.02
0,548.70,90.00,89.98,-0.05812,0.57
0,571.95,90.00,89.90,-0.05498,2.82
0,592.77,90.00,89.85,-0.05498,2.56
0,598.40,90.00,89.85,-0.05498,1.38
0,603.03,90.00,89.86,-0.05655,1.38
0,608.23,90.00,89.86,-0.05655,0.05
0,613.70,90.00,89.86,-0.05655,-0.85
0,619.18,90.00,89.86,-0.05498,0.11
0,623.64,90.00,89.86,-0.05655,1.10
0,621.79,90.00,89.89,-0.05655,-0.07
0,615.72,90.00,89.92,-0.05812,-1.63
0,609.62,90.00,89.95,-0.05812,-2.43
0,601.23,90.00,89.98,-0.05969,-2.51
0,592.75,90.00,90.01,-0.05969,-2.52
0,561.37,90.00,90.12,-0.06283,-0.68
0,524.80,90.00,90.22,-0.06912,-2.50
0,498.28,90.00,90.27,-0.07069,-2.96
0,487.91,90.00,90.27,-0.07069,-4.77
0,478.58,90.00,90.27,-0.06912,-2.58
0,478.48,90.00,90.23,-0.06440,-0.23
0,527.77,90.00,90.04,-0.06283,1.57
0,538.93,90.00,90.01,-0.06126,4.83
0,541.77,90.00,90.00,-0.05969,5.97
0,547.08,90.00,89.98,-0.05969,5.97
0,546.78,90.00,89.98,-0.05969,1.47
0,548.43,90.00,89.98,-0.05969,-0.54
0,552.19,90.00,89.97,-0.05655,0.13
0,584.30,90.00,89.87,-0.05498,2.32
0,593.64,90.00,89.86,-0.05498,2.88
0,599.11,90.00,89.86,-0.05498,1.86
0,603.52,90.00,89.86,-0.05655,0.20
0,608.88,90.00,89.86,-0.05655,-0.80
0,614.24,90.00,89.86,-0.05655,-0.04
0,619.61,90.00,89.86,-0.05498,0.91
0,622.95,90.00,89.87,-0.05655,0.03
0,616.56,90.00,89.91,-0.05812,-1.45
0,613.97,90.00,89.92,-0.05812,-2.31
0,608.68,90.00,89.95,-0.05812,-2.53
0,603.31,90.00,89.98,-0.05969,-2.39
0,586.80,90.00,90.03,-0.06126,-2.27
0,549.32,90.00,90.15,-0.06283,-1.48
0,509.50,90.00,90.26,-0.06912,-4.45
0,494.27,90.00,90.27,-0.07069,-4.45
0,485.41,90.00,90.27,-0.07069,-4.76
0,478.14,90.00,90.26,-0.06912,-4.41
0,487.39,90.00,90.19,-0.06283,-1.29
0,535.50,90.00,90.02,-0.06283,4.51
0,541.14,90.00,90.00,-0.05969,3.42
0,542.13,90.00,90.00,-0.05969,5.73
0,545.46,90.00,89.99,-0.05969,5.08
0,545.98,90.00,89.99,-0.05969,-0.65
0,546.51,90.00,89.99,-0.05812,-0.02
0,558.15,90.00,89.94,-0.05498,1.52
0,591.71,90.00,89.85,-0.05498,3.19
0,597.44,90.00,89.85,-0.05498,2.32
0,603.18,90.00,89.85,-0.05655,0.74
0,607.87,90.00,89.85,-0.05655,-0.87
0,613.50,90.00,89.85,-0.05655,0.31
0,619.12,90.00,89.85,-0.05655,1.01
0,624.75,90.00,89.85,-0.05498,1.33
0,623.21,90.00,89.88,-0.05655,-0.38
0,617.47,90.00,89.91,-0.05812,-0.38
0,614.54,90.00,89.93,-0.05812,-1.73
0,606.81,90.00,89.97,-0.05812,-2.42
0,600.88,90.00,89.99,-0.05969,-2.55
0,580.87,90.00,90.06,-0.06126,-3.27
0,541.21,90.00,90.17,-0.06440,-1.12
0,503.45,90.00,90.27,-0.06912,-3.74
0,493.92,90.00,90.27,-0.07069,-5.73
0,483.50,90.00,90.27,-0.06912,-5.21
0,476.26,90.00,90.26,-0.06754,-2.14
0,501.95,90.00,90.13,-0.06440,1.77
0,536.82,90.00,90.01,-0.06126,2.70
0,540.47,90.00,90.00,-0.05969,4.08
0,544.46,90.00,89.99,-0.05812,5.59
0,547.00,90.00,89.98,-0.05969,-0.14
0,547.63,90.00,89.99,-0.05969,-0.18
0,548.25,90.00,89.98,-0.05812,0.71
0,567.23,90.00,89.92,-0.05498,2.74
0,591.60,90.00,89.86,-0.05498,2.36
0,597.07,90.00,89.86,-0.05498,2.36
0,602.28,90.00,89.86,-0.05655,1.36
0,606.72,90.00,89.86,-0.05655,-0.23
0,612.08,90.00,89.86,-0.05655,-0.52
0,617.45,90.00,89.86,-0.05498,0.20
0,622.81,90.00,89.86,-0.05655,1.42
0,619.98,90.00,89.89,-0.05655,-0.11
0,614.88,90.00,89.92,-0.05812,-1.61
0,610.88,90.00,89.94,-0.05812,-2.43
0,602.68,90.00,89.97,-0.05969,-2.69
0,595.45,90.00,90.00,-0.05969,-2.02
0,564.47,90.00,90.11,-0.06283,-0.98
0,526.08,90.00,90.22,-0.06912,-2.90
0,498.77,90.00,90.27,-0.07069,-3.08
0,489.50,90.00,90.27,-0.07069,-4.70
0,481.28,90.00,90.26,-0.06912,-2.42
0,477.39,90.00,90.24,-0.06440,-0.31
0,524.23,90.00,90.05,-0.06440,1.58
0,541.15,90.00,90.00,-0.06126,4.54
0,543.21,90.00,89.99,-0.05969,4.54
0,548.65,90.00,89.98,-0.05969,6.24
0,548.51,90.00,89.98,-0.05969,1.88
0,550.35,90.00,89.98,-0.05969,-0.40
0,554.22,90.00,89.97,-0.05655,0.26
0,582.35,90.00,89.87,-0.05498,2.53
0,592.40,90.00,89.86,-0.05498,2.91
0,597.61,90.00,89.87,-0.05498,1.78
0,601.74,90.00,89.87,-0.05655,0.21
0,606.84,90.00,89.87,-0.05655,-0.69
0,611.95,90.00,89.87,-0.05655,-0.10
0,617.05,90.00,89.87,-0.05498,0.84
0,621.17,90.00,89.87,-0.05655,0.28
0,613.79,90.00,89.91,-0.05812,-0.91
0,609.85,90.00,89.93,-0.05812,-2.16
0,606.15,90.00,89.95,-0.05812,-2.82
0,601.71,90.00,89.98,-0.05969,-1.69
0,582.12,90.00,90.04,-0.06126,-0.68
0,545.15,90.00,90.16,-0.06440,0.22
0,505.09,90.00,90.26,-0.06912,0.22
0,494.33,90.00,90.27,-0.07069,-3.91
0,484.13,90.00,90.27,-0.06912,-5.54
0,475.99,90.00,90.26,-0.06754,-3.03
0,493.42,90.00,90.16,-0.06283,-0.47
0,537.60,90.00,90.01,-0.06283,2.61
0,541.47,90.00,90.00,-0.05969,4.79
0,544.61,90.00,89.99,-0.05969,5.74
0,547.29,90.00,89.98,-0.05969,4.03
0,548.07,90.00,89.98,-0.05969,-0.92
0,548.85,90.00,89.98,-0.05812,0.15
0,563.86,90.00,89.93,-0.05498,2.20
0,590.85,90.00,89.86,-0.05498,3.05
0,596.33,90.00,89.86,-0.05498,2.08
0,600.79,90.00,89.86,-0.05655,0.56
0,606.15,90.00,89.86,-0.05655,-1.47
0,611.51,90.00,89.86,-0.05655,-0.03
0,616.88,90.00,89.86,-0.05498,0.68
0,622.24,90.00,89.86,-0.05655,0.63
0,620.44,90.00,89.89,-0.05655,0.63
0,613.20,90.00,89.92,-0.05812,-0.85
0,611.11,90.00,89.94,-0.05812,-2.43
0,605.19,90.00,89.97,-0.05812,-2.50
0,598.29,90.00,89.99,-0.05969,-2.09
0,573.93,90.00,90.08,-0.06126,-2.09
0,536.64,90.00,90.19,-0.06754,0.09
0,500.13,90.00,90.27,-0.06912,-4.59
0,490.70,90.00,90.27,-0.07069,-4.49
0,481.35,90.00,90.27,-0.06912,-3.86
0,475.27,90.00,90.25,-0.06597,-1.90
0,512.75,90.00,90.09,-0.06440,1.80
0,540.71,90.00,90.00,-0.06126,3.96
0,542.83,90.00,89.99,-0.05969,5.85
0,547.25,90.00,89.98,-0.05969,5.95
0,548.03,90.00,89.98,-0.05969,-0.55
0,548.81,90.00,89.98,-0.05969,0.06
0,550.59,90.00,89.97,-0.05655,1.30
0,576.08,90.00,89.89,-0.05498,3.10
0,591.93,90.00,89.86,-0.05498,3.10
0,597.03,90.00,89.86,-0.05498,2.60
0,601.34,90.00,89.86,-0.05655,1.12
0,606.55,90.00,89.86,-0.05655,-0.75
0,611.77,90.00,89.86,-0.05655,-0.33
0,616.98,90.00,89.86,-0.05498,0.63
0,622.19,90.00,89.86,-0.05655,1.32
0,617.11,90.00,89.90,-0.05655,-0.25
0,613.68,90.00,89.92,-0.05812,-1.65
0,609.50,90.00,89.94,-0.05812,-2.30
0,603.31,90.00,89.97,-0.05969,-2.65
0,590.01,90.00,90.02,-0.05969,-2.03
0,558.30,90.00,90.12,-0.06283,-0.15
0,520.54,90.00,90.23,-0.06912,-3.20
0,496.75,90.00,90.27,-0.07069,-4.70
0,486.39,90.00,90.27,-0.07069,-4.62
0,479.11,90.00,90.26,-0.06912,-2.22
0,480.19,90.00,90.22,-0.06440,1.54
0,530.08,90.00,90.03,-0.06283,2.86
0,541.55,90.00,90.00,-0.05969,2.86
0,544.79,90.00,89.99,-0.05969,4.61
0,550.64,90.00,89.97,-0.05969,5.85
0,550.72,90.00,89.97,-0.05812,-0.04
0,552.82,90.00,89.97,-0.05812,0.17
0,557.97,90.00,89.95,-0.05655,0.92
0,585.62,90.00,89.87,-0.05498,2.59
0,591.58,90.00,89.87,-0.05498,2.35
0,596.58,90.00,89.87,-0.05655,1.00
0,600.53,90.00,89.87,-0.05655,-0.10
0,605.37,90.00,89.87,-0.05655,-0.11
0,610.22,90.00,89.87,-0.05655,0.65
0,616.14,90.00,89.87,-0.05655,1.36
0,620.02,90.00,89.87,-0.05655,-0.17
0,610.43,90.00,89.92,-0.05812,-2.02
0,609.20,90.00,89.93,-0.05812,-2.28
0,606.55,90.00,89.95,-0.05812,-2.40
0,603.36,90.00,89.97,-0.05969,-1.94
0,579.97,90.00,90.05,-0.06126,-0.80
0,541.59,90.00,90.17,-0.06440,-0.80
0,505.65,90.00,90.26,-0.06912,-0.80
0,494.53,90.00,90.26,-0.07069,-3.59
0,484.44,90.00,90.26,-0.06912,-4.53
0,476.45,90.00,90.25,-0.06754,-2.26
0,501.26,90.00,90.13,-0.06283,0.05
0,537.14,90.00,90.01,-0.06283,0.44
0,539.86,90.00,90.00,-0.05969,4.92
0,542.83,90.00,89.99,-0.05969,5.72
0,546.33,90.00,89.98,-0.05969,3.14
0,546.97,90.00,89.98,-0.05969,-0.49
0,547.60,90.00,89.98,-0.05812,0.29
0,566.58,90.00,89.92,-0.05498,2.07
0,591.95,90.00,89.85,-0.05498,3.04
0,597.57,90.00,89.85,-0.05498,1.87
0,603.18,90.00,89.86,-0.05655,-0.22
0,607.68,90.00,89.86,-0.05655,-1.28
0,613.15,90.00,89.86,-0.05655,0.38
0,618.63,90.00,89.86,-0.05498,1.18
0,624.10,90.00,89.86,-0.05655,1.18
0,622.15,90.00,89.88,-0.05655,0.69
0,614.21,90.00,89.92,-0.05812,-1.07
0,610.04,90.00,89.95,-0.05812,-2.02
0,603.81,90.00,89.97,-0.05812,-2.80
0,599.79,90.00,89.99,-0.05969,-2.25
0,576.63,90.00,90.07,-0.06126,-1.21
0,534.39,90.00,90.20,-0.06754,-2.01
0,499.54,90.00,90.28,-0.06912,-5.35
0,490.03,90.00,90.27,-0.07069,-4.82
0,480.60,90.00,90.27,-0.06912,-3.98
0,475.43,90.00,90.25,-0.06597,-1.26
0,515.01,90.00,90.08,-0.06440,3.89
0,540.19,90.00,90.00,-0.06126,3.18
0,542.18,90.00,90.00,-0.05969,5.20
0,546.37,90.00,89.98,-0.05969,5.85
0,547.01,90.00,89.98,-0.05969,-0.82
0,547.64,90.00,89.98,-0.05969,-0.28
0,549.28,90.00,89.98,-0.05655,1.36
0,577.83,90.00,89.89,-0.05498,1.36
0,593.69,90.00,89.85,-0.05498,3.19
0,599.32,90.00,89.85,-0.05498,2.43
0,603.85,90.00,89.86,-0.05655,1.09
0,609.33,90.00,89.86,-0.05655,-0.94
0,614.80,90.00,89.86,-0.05655,-0.05
0,620.28,90.00,89.86,-0.05498,1.08
0,623.68,90.00,89.86,-0.05655,1.30
0,618.56,90.00,89.90,-0.05655,-0.11
0,614.09,90.00,89.92,-0.05812,-1.56
0,611.92,90.00,89.94,-0.05812,-2.14
0,606.94,90.00,89.97,-0.05812,-2.55
0,591.86,90.00,90.02,-0.05969,-2.06
0,560.18,90.00,90.12,-0.06283,-0.19
0,524.47,90.00,90.22,-0.06912,-2.12
0,497.85,90.00,90.27,-0.07069,-4.77
0,488.41,90.00,90.27,-0.07069,-5.22
0,480.05,90.00,90.26,-0.06912,-2.23
0,479.02,90.00,90.23,-0.06440,0.85
0,529.48,90.00,90.04,-0.06283,0.85
0,539.64,90.00,90.01,-0.06126,2.26
0,541.45,90.00,90.00,-0.05969,4.62
0,545.60,90.00,89.99,-0.05969,5.71
0,546.12,90.00,89.99,-0.05969,-0.23
0,546.65,90.00,89.99,-0.05969,-0.06
0,552.20,90.00,89.97,-0.05655,0.73
0,586.52,90.00,89.86,-0.05498,2.90
0,595.13,90.00,89.85,-0.05498,2.61
0,600.76,90.00,89.85,-0.05655,1.13
0,606.38,90.00,89.85,-0.05655,0.03
0,610.90,90.00,89.86,-0.05655,-0.43
0,617.42,90.00,89.86,-0.05655,0.42
0,621.97,90.00,89.86,-0.05498,1.30
0,624.42,90.00,89.87,-0.05655,0.26
0,616.10,90.00,89.91,-0.05812,-1.16
0,612.19,90.00,89.93,-0.05812,-1.86
0,608.46,90.00,89.95,-0.05812,-2.81
0,604.01,90.00,89.97,-0.05969,-1.80
0,587.54,90.00,90.03,-0.06126,-1.80
0,551.22,90.00,90.15,-0.06283,-1.27
0,512.52,90.00,90.26,-0.06912,-0.55
0,495.27,90.00,90.27,-0.07069,-3.36
0,484.83,90.00,90.27,-0.07069,-5.48
0,477.48,90.00,90.26,-0.06754,-3.24
0,488.69,90.00,90.19,-0.06283,-0.13
0,534.85,90.00,90.02,-0.06283,2.95
0,540.38,90.00,90.00,-0.05969,5.12
0,542.31,90.00,89.99,-0.05969,6.08
0,546.74,90.00,89.98,-0.05969,4.69
0,547.38,90.00,89.98,-0.05969,-0.68
0,548.01,90.00,89.98,-0.05812,-0.15
0,559.77,90.00,89.94,-0.05498,1.96
0,592.31,90.00,89.85,-0.05498,3.14
0,597.03,90.00,89.85,-0.05498,2.02
0,602.65,90.00,89.85,-0.05655,0.16
0,607.27,90.00,89.86,-0.05655,-1.56
0,612.75,90.00,89.86,-0.05655,0.43
0,618.23,90.00,89.86,-0.05498,0.43
0,623.43,90.00,89.86,-0.05655,1.15
0,622.72,90.00,89.88,-0.05655,0.63
0,614.90,90.00,89.92,-0.05812,-1.23
0,612.89,90.00,89.93,-0.05812,-2.35
0,608.09,90.00,89.96,-0.05812,-2.65
0,602.48,90.00,89.98,-0.05969,-2.22
0,578.47,90.00,90.07,-0.06126,-1.62
0,539.46,90.00,90.18,-0.06597,0.10
0,502.38,90.00,90.27,-0.06912,-4.41
0,492.92,90.00,90.27,-0.07069,-4.43
0,482.54,90.00,90.27,-0.06912,-4.44
0,476.37,90.00,90.26,-0.06754,-1.63
0,507.32,90.00,90.11,-0.06440,1.96
0,539.71,90.00,90.00,-0.06126,4.62
0,543.69,90.00,89.99,-0.05969,6.00
0,547.01,90.00,89.98,-0.05812,6.25
0,548.76,90.00,89.98,-0.05969,-0.41
0,549.54,90.00,89.98,-0.05969,-0.06
0,551.32,90.00,89.98,-0.05812,-0.06
0,570.51,90.00,89.91,-0.05498,1.29
0,591.97,90.00,89.86,-0.05498,3.15
0,597.33,90.00,89.86,-0.05498,2.46
0,601.70,90.00,89.86,-0.05655,1.52
0,606.92,90.00,89.86,-0.05655,-0.96
0,612.13,90.00,89.86,-0.05655,-0.54
0,617.35,90.00,89.86,-0.05498,0.67
0,622.56,90.00,89.86,-0.05655,1.69
0,618.52,90.00,89.90,-0.05655,-0.29
0,613.12,90.00,89.93,-0.05812,-1.80
0,609.82,90.00,89.95,-0.05812,-2.47
0,605.74,90.00,89.96,-0.05812,-2.49
0,596.92,90.00,90.00,-0.05969,-2.65
0,567.14,90.00,90.10,-0.06283,-0.74
0,526.00,90.00,90.22,-0.06912,-1.41
0,497.37,90.00,90.28,-0.07069,-4.18
0,487.80,90.00,90.27,-0.07069,-4.86
0,479.30,90.00,90.27,-0.06912,-1.76
0,475.15,90.00,90.24,-0.06597,-1.76
0,523.00,90.00,90.05,-0.06440,0.61
0,541.95,90.00,90.00,-0.06126,2.34
0,543.13,90.00,89.99,-0.05969,4.54
0,547.58,90.00,89.98,-0.05969,5.82
0,548.37,90.00,89.98,-0.05969,-0.71
0,549.15,90.00,89.98,-0.05969,-0.30
0,552.94,90.00,89.97,-0.05655,0.66
0,583.01,90.00,89.87,-0.05498,2.82
0,593.28,90.00,89.86,-0.05498,2.60
0,598.65,90.00,89.86,-0.05498,1.47
0,604.01,90.00,89.86,-0.05655,-0.01
0,608.29,90.00,89.86,-0.05655,-0.51
0,613.50,90.00,89.86,-0.05655,0.19
0,618.78,90.00,89.86,-0.05498,1.42
0,622.03,90.00,89.87,-0.05655,0.26
0,614.58,90.00,89.91,-0.05812,-1.82
0,610.69,90.00,89.93,-0.05812,-2.83
0,605.99,90.00,89.96,-0.05812,-2.72
0,601.48,90.00,89.98,-0.05969,-2.72
0,586.96,90.00,90.03,-0.06126,-2.28
0,547.53,90.00,90.15,-0.06283,-0.82
0,505.53,90.00,90.27,-0.06912,-2.25
0,493.08,90.00,90.27,-0.07069,-3.37
0,482.66,90.00,90.27,-0.07069,-4.92
0,475.35,90.00,90.26,-0.06754,-2.00
0,492.69,90.00,90.16,-0.06283,-0.69
0,538.73,90.00,90.00,-0.06126,1.54
0,544.91,90.00,89.99,-0.05969,4.53
0,546.42,90.00,89.98,-0.05812,6.14
0,549.24,90.00,89.98,-0.05969,1.47
0,550.14,90.00,89.98,-0.05969,-0.42
0,551.03,90.00,89.98,-0.05812,0.04
0,564.13,90.00,89.93,-0.05498,2.45
0,591.00,90.00,89.86,-0.05498,3.10
0,596.37,90.00,89.86,-0.05498,1.68
0,601.73,90.00,89.86,-0.05655,0.25
0,605.99,90.00,89.86,-0.05655,-0.83
0,611.21,90.00,89.86,-0.05655,-0.83
0,616.16,90.00,89.86,-0.05655,0.17
0,621.38,90.00,89.86,-0.05655,0.81
0,619.50,90.00,89.89,-0.05655,0.33
0,612.28,90.00,89.92,-0.05812,-1.28
0,610.11,90.00,89.94,-0.05812,-1.94
0,605.10,90.00,89.97,-0.05969,-2.72
0,596.14,90.00,90.00,-0.05969,-1.71
0,568.37,90.00,90.09,-0.06283,-1.49
0,530.59,90.00,90.20,-0.06754,0.30
0,497.49,90.00,90.27,-0.07069,-3.68
0,489.02,90.00,90.27,-0.07069,-5.41
0,479.66,90.00,90.26,-0.06912,-3.33
0,475.60,90.00,90.24,-0.06597,-0.49
0,521.94,90.00,90.06,-0.06440,3.27
0,541.73,90.00,90.00,-0.06126,5.50
0,543.87,90.00,89.99,-0.05969,6.06
0,548.40,90.00,89.98,-0.05969,4.83
0,548.27,90.00,89.98,-0.05969,-0.57
0,550.05,90.00,89.98,-0.05969,-0.57
0,552.86,90.00,89.97,-0.05655,-0.31
0,580.78,90.00,89.88,-0.05498,2.05
0,592.87,90.00,89.86,-0.05498,3.13
0,598.24,90.00,89.86,-0.05655,2.05
0,602.60,90.00,89.86,-0.05655,0.16
0,607.81,90.00,89.86,-0.05655,-1.60
0,613.03,90.00,89.86,-0.05655,0.30
0,618.24,90.00,89.86,-0.05498,1.03
0,622.47,90.00,89.87,-0.05655,0.66
0,614.10,90.00,89.91,-0.05812,-1.15
0,612.27,90.00,89.93,-0.05812,-2.50
0,608.86,90.00,89.95,-0.05812,-2.73
0,605.70,90.00,89.97,-0.05969,-1.92
0,588.62,90.00,90.03,-0.06126,-1.33
0,551.30,90.00,90.15,-0.06283,-0.18
0,512.81,90.00,90.25,-0.06912,-5.00
0,495.67,90.00,90.27,-0.07069,-4.12
0,485.32,90.00,90.27,-0.07069,-4.19
0,478.09,90.00,90.26,-0.06912,-4.19
0,483.74,90.00,90.20,-0.06283,-1.74
0,533.33,90.00,90.02,-0.06283,1.64
0,542.88,90.00,89.99,-0.05969,3.91
0,545.17,90.00,89.99,-0.05969,5.54
0,548.88,90.00,89.98,-0.05969,6.38
0,549.78,90.00,89.98,-0.05969,-0.63
0,550.67,90.00,89.98,-0.05812,-0.34
0,560.64,90.00,89.94,-0.05498,1.35
0,589.96,90.00,89.86,-0.05498,3.21
0,595.30,90.00,89.86,-0.05498,2.55
0,599.56,90.00,89.86,-0.05655,1.16
0,604.77,90.00,89.86,-0.05655,-0.88
0,609.99,90.00,89.86,-0.05655,-0.08
0,615.20,90.00,89.86,-0.05498,0.98
0,620.42,90.00,89.86,-0.05655,1.23
0,621.61,90.00,89.88,-0.05655,-0.04
0,611.64,90.00,89.92,-0.05812,-1.97
0,610.40,90.00,89.94,-0.05812,-2.37
0,606.47,90.00,89.96,-0.05812,-2.37
0,600.83,90.00,89.98,-0.05969,-2.26
0,577.93,90.00,90.06,-0.06126,-2.88
0,538.02,90.00,90.18,-0.06597,-1.20
0,501.80,90.00,90.27,-0.06912,-3.06
0,491.47,90.00,90.27,-0.07069,-5.38
0,482.22,90.00,90.27,-0.06912,-4.67
0,476.14,90.00,90.25,-0.06754,-2.46
0,510.42,90.00,90.10,-0.06440,1.80
0,539.13,90.00,90.01,-0.06126,2.10
0,540.95,90.00,90.00,-0.05969,5.33
0,547.10,90.00,89.98,-0.05812,5.79
0,548.97,90.00,89.98,-0.05969,-0.44
0,549.87,90.00,89.98,-0.05969,0.30
0,551.76,90.00,89.97,-0.05655,0.78
0,575.35,90.00,89.89,-0.05498,2.94
0,593.22,90.00,89.86,-0.05498,2.82
0,598.69,90.00,89.86,-0.05498,1.09
0,603.12,90.00,89.86,-0.05655,-0.29
0,608.48,90.00,89.86,-0.05655,-0.29
0,613.57,90.00,89.86,-0.05655,-0.37
0,618.94,90.00,89.86,-0.05498,0.23
0,623.31,90.00,89.86,-0.05655,1.12
0,618.23,90.00,89.90,-0.05655,-0.24
0,611.65,90.00,89.93,-0.05812,-1.88
0,608.10,90.00,89.95,-0.05812,-2.36
0,602.69,90.00,89.98,-0.05969,-2.55
0,590.30,90.00,90.02,-0.05969,-2.78
0,555.49,90.00,90.13,-0.06283,-0.71
0,517.41,90.00,90.24,-0.06912,-1.45
0,496.46,90.00,90.27,-0.07069,-4.43
0,486.11,90.00,90.27,-0.07069,-4.23
0,477.81,90.00,90.26,-0.06912,-2.00
0,482.89,90.00,90.20,-0.06283,0.66
0,533.44,90.00,90.02,-0.06283,1.73
0,542.00,90.00,90.00,-0.05969,5.92
0,543.11,90.00,89.99,-0.05969,6.34
0,547.62,90.00,89.98,-0.05969,2.09
0,548.40,90.00,89.98,-0.05969,2.09
0,549.14,90.00,89.98,-0.05812,-0.23
0,556.96,90.00,89.95,-0.05655,0.25
0,589.95,90.00,89.85,-0.05498,2.68
0,596.55,90.00,89.85,-0.05498,2.74
0,601.08,90.00,89.86,-0.05655,1.38
0,606.55,90.00,89.86,-0.05655,-0.27
0,610.95,90.00,89.86,-0.05655,-0.88
0,617.36,90.00,89.86,-0.05655,0.50
0,621.81,90.00,89.86,-0.05498,1.12
0,623.14,90.00,89.87,-0.05655,-0.06
0,614.48,90.00,89.92,-0.05812,-1.68
0,612.45,90.00,89.93,-0.05812,-2.31
0,607.70,90.00,89.96,-0.05812,-2.61
0,602.13,90.00,89.98,-0.05969,-1.52
0,581.29,90.00,90.06,-0.06126,-1.25
0,542.79,90.00,90.17,-0.06440,0.39
0,504.13,90.00,90.27,-0.06912,-3.71
0,493.74,90.00,90.27,-0.07069,-5.56
0,483.39,90.00,90.27,-0.06912,-5.56
0,476.69,90.00,90.26,-0.06754,-3.13
0,501.35,90.00,90.14,-0.06283,-0.00
0,538.18,90.00,90.01,-0.06126,3.18
0,543.02,90.00,90.00,-0.05969,5.58
0,545.13,90.00,89.99,-0.05969,5.82
0,547.68,90.00,89.98,-0.05969,4.46
0,548.32,90.00,89.98,-0.05969,-0.55
0,548.95,90.00,89.98,-0.05812,-0.09
0,567.94,90.00,89.92,-0.05498,1.93
0,593.36,90.00,89.85,-0.05498,3.30
0,598.99,90.00,89.85,-0.05498,2.22
0,604.61,90.00,89.85,-0.05655,0.27
0,609.17,90.00,89.86,-0.05655,-1.50
0,614.63,90.00,89.86,-0.05655,0.23
0,619.09,90.00,89.86,-0.05498,0.95
0,624.47,90.00,89.86,-0.05655,0.70
0,620.57,90.00,89.89,-0.05655,-0.89
0,614.32,90.00,89.92,-0.05812,-2.25
0,612.08,90.00,89.94,-0.05812,-2.25
0,607.99,90.00,89.96,-0.05812,-2.64
0,600.30,90.00,89.99,-0.05969,-2.08
0,569.70,90.00,90.10,-0.06283,-1.70
0,533.60,90.00,90.20,-0.06754,0.04
0,499.80,90.00,90.28,-0.06912,-4.20
0,490.29,90.00,90.27,-0.07069,-4.47
0,480.81,90.00,90.27,-0.06912,-3.85
0,475.62,90.00,90.25,-0.06597,-1.50
0,518.53,90.00,90.07,-0.06440,1.56
0,538.78,90.00,90.01,-0.06126,4.38
0,539.45,90.00,90.00,-0.05969,5.68
0,546.42,90.00,89.98,-0.05969,5.99
0,547.10,90.00,89.98,-0.05969,-0.74
0,547.73,90.00,89.98,-0.05969,-0.01
0,551.38,90.00,89.97,-0.05655,1.16
0,583.22,90.00,89.87,-0.05498,3.33
0,596.76,90.00,89.85,-0.05498,2.62
0,601.58,90.00,89.85,-0.05498,1.60
0,607.32,90.00,89.85,-0.05655,1.60
0,610.68,90.00,89.86,-0.05655,-0.96
0,615.07,90.00,89.86,-0.05655,-0.56
0,620.45,90.00,89.86,-0.05498,0.95
0,624.80,90.00,89.87,-0.05655,1.33
0,619.76,90.00,89.90,-0.05812,-0.09
0,611.09,90.00,89.94,-0.05812,-2.00
0,608.32,90.00,89.95,-0.05812,-2.63
0,604.95,90.00,89.97,-0.05969,-2.56
0,592.78,90.00,90.02,-0.05969,-1.93
0,553.91,90.00,90.14,-0.06283,-0.01
0,514.40,90.00,90.25,-0.06912,-2.58
0,496.21,90.00,90.28,-0.07069,-5.00
0,485.73,90.00,90.27,-0.07069,-4.98
0,478.35,90.00,90.26,-0.06912,-1.94
0,486.46,90.00,90.20,-0.06283,1.07
0,533.29,90.00,90.02,-0.06283,2.89
0,539.68,90.00,90.00,-0.05969,4.51
0,542.59,90.00,89.99,-0.05969,5.62
0,548.06,90.00,89.98,-0.05969,5.62
0,547.72,90.00,89.98,-0.05969,-0.38
0,549.37,90.00,89.98,-0.05812,-0.20
0,557.19,90.00,89.95,-0.05655,0.94
0,590.23,90.00,89.86,-0.05498,3.09
0,595.71,90.00,89.86,-0.05498,2.87
0,601.18,90.00,89.86,-0.05655,1.17
0,605.64,90.00,89.86,-0.05655,-0.31
0,611.01,90.00,89.86,-0.05655,-0.40
0,616.37,90.00,89.86,-0.05655,0.26
0,621.73,90.00,89.86,-0.05655,1.42
0,623.04,90.00,89.88,-0.05655,0.12
0,614.27,90.00,89.92,-0.05812,-1.48
0,612.19,90.00,89.93,-0.05812,-2.16
0,608.48,90.00,89.95,-0.05812,-2.08
0,604.12,90.00,89.98,-0.05969,-2.36
0,579.39,90.00,90.06,-0.06126,-0.49
0,540.59,90.00,90.17,-0.06440,-1.12
0,504.81,90.00,90.27,-0.06912,-4.17
0,493.45,90.00,90.27,-0.07069,-4.17
0,484.65,90.00,90.27,-0.06912,-5.46
0,476.49,90.00,90.26,-0.06754,-2.80
0,503.25,90.00,90.13,-0.06440,-0.52
0,538.18,90.00,90.01,-0.06126,2.00
0,539.79,90.00,90.01,-0.05969,4.92
0,543.65,90.00,89.99,-0.05812,5.65
0,547.17,90.00,89.98,-0.05969,3.54
0,547.80,90.00,89.98,-0.05969,-0.83
0,548.44,90.00,89.98,-0.05812,0.19
0,568.45,90.00,89.92,-0.05498,2.21
0,593.94,90.00,89.85,-0.05498,3.24
0,598.63,90.00,89.85,-0.05498,1.87
0,604.25,90.00,89.85,-0.05655,-0.00
0,608.84,90.00,89.86,-0.05655,-1.48
0,613.25,90.00,89.86,-0.05655,0.31
0,618.62,90.00,89.86,-0.05655,1.09
0,623.98,90.00,89.86,-0.05655,0.44
0,621.13,90.00,89.89,-0.05655,-0.98
0,612.94,90.00,89.93,-0.05812,-0.98
0,610.45,90.00,89.95,-0.05812,-2.20
0,606.34,90.00,89.96,-0.05812,-2.68
0,598.47,90.00,90.00,-0.05969,-2.48
0,570.79,90.00,90.09,-0.06283,-1.45
0,532.01,90.00,90.20,-0.06754,-1.60
0,496.90,90.00,90.28,-0.07069,-5.84
0,488.25,90.00,90.28,-0.07069,-4.48
0,478.74,90.00,90.27,-0.06912,-4.25
0,474.51,90.00,90.25,-0.06597,-1.66
0,519.46,90.00,90.07,-0.06440,3.62
0,542.09,90.00,89.99,-0.06126,3.47
0,544.34,90.00,89.99,-0.05969,5.46
0,548.89,90.00,89.98,-0.05969,6.16
0,549.79,90.00,89.98,-0.05969,-0.79
0,550.68,90.00,89.98,-0.05969,-0.25
0,553.58,90.00,89.97,-0.05655,1.34
0,580.42,90.00,89.88,-0.05498,3.23
0,593.44,90.00,89.86,-0.05498,2.35
0,598.80,90.00,89.86,-0.05655,2.35
0,602.79,90.00,89.86,-0.05655,1.16
0,608.00,90.00,89.86,-0.05655,-0.88
0,613.22,90.00,89.86,-0.05655,0.01
0,618.43,90.00,89.86,-0.05498,1.04
0,622.66,90.00,89.87,-0.05655,1.32
0,615.37,90.00,89.91,-0.05812,-0.24
0,611.53,90.00,89.93,-0.05812,-2.36
0,610.05,90.00,89.95,-0.05812,-2.43
0,608.03,90.00,89.96,-0.05969,-2.30
0,593.24,90.00,90.02,-0.05969,-2.00
0,553.35,90.00,90.14,-0.06283,0.04
0,519.06,90.00,90.24,-0.06912,-4.00
0,497.21,90.00,90.27,-0.07069,-5.34
0,486.85,90.00,90.27,-0.07069,-4.86
0,479.57,90.00,90.26,-0.06912,-2.03
0,481.75,90.00,90.21,-0.06440,0.45
0,530.96,90.00,90.03,-0.06283,3.54
0,540.28,90.00,90.00,-0.05969,4.72
0,541.23,90.00,90.00,-0.05969,4.72
0,547.56,90.00,89.98,-0.05969,5.75
0,548.34,90.00,89.98,-0.05969,-0.14
0,549.12,90.00,89.98,-0.05812,-0.03
0,556.96,90.00,89.95,-0.05655,0.88
0,590.89,90.00,89.85,-0.05498,3.17
0,596.52,90.00,89.85,-0.05498,2.76
0,602.14,90.00,89.85,-0.05655,1.00
0,606.72,90.00,89.86,-0.05655,-0.12
0,612.19,90.00,89.86,-0.05655,-0.78
0,617.67,90.00,89.86,-0.05655,0.58
0,623.14,90.00,89.86,-0.05655,1.39
0,623.57,90.00,89.87,-0.05655,0.33
0,615.90,90.00,89.92,-0.05812,-1.50
0,611.88,90.00,89.94,-0.05812,-2.03
0,608.05,90.00,89.96,-0.05812,-2.37
0,602.51,90.00,89.98,-0.05969,-2.39
0,581.67,90.00,90.05,-0.06126,-0.46
0,544.34,90.00,90.17,-0.06440,0.24
0,503.89,90.00,90.27,-0.06912,0.24
0,493.85,90.00,90.27,-0.07069,-3.41
0,483.38,90.00,90.27,-0.06912,-5.51
0,476.07,90.00,90.26,-0.06754,-3.07
0,495.45,90.00,90.15,-0.06283,-0.49
0,536.67,90.00,90.02,-0.06126,1.59
0,541.36,90.00,90.00,-0.05969,5.37
0,545.45,90.00,89.99,-0.05812,5.56
0,549.27,90.00,89.98,-0.05969,3.92
0,550.16,90.00,89.98,-0.05969,-0.86
0,551.05,90.00,89.97,-0.05812,0.30
0,565.19,90.00,89.93,-0.05498,2.20
0,590.07,90.00,89.86,-0.05498,3.15
0,595.29,90.00,89.86,-0.05498,1.90
0,600.50,90.00,89.86,-0.05655,0.05
0,604.71,90.00,89.87,-0.05655,-1.63
0,609.82,90.00,89.87,-0.05655,-0.05
0,615.98,90.00,89.86,-0.05498,1.26
0,621.19,90.00,89.86,-0.05655,0.87
0,619.36,90.00,89.89,-0.05655,0.87
0,610.93,90.00,89.93,-0.05812,-0.96
0,609.61,90.00,89.94,-0.05812,-2.20
0,607.73,90.00,89.95,-0.05812,-2.65
0,600.37,90.00,89.99,-0.05969,-2.52
0,568.96,90.00,90.09,-0.06283,-1.21
0,536.20,90.00,90.19,-0.06754,-1.32
0,499.74,90.00,90.27,-0.06912,-5.40
0,490.40,90.00,90.27,-0.07069,-4.31
0,482.14,90.00,90.26,-0.06912,-4.40
0,477.21,90.00,90.25,-0.06597,-1.51
0,516.06,90.00,90.08,-0.06440,3.13
0,540.23,90.00,90.00,-0.06126,4.85
0,542.15,90.00,90.00,-0.05969,5.61
0,547.40,90.00,89.98,-0.05969,6.19
0,548.18,90.00,89.98,-0.05969,-0.82
0,548.96,90.00,89.98,-0.05969,-0.07
0,551.72,90.00,89.97,-0.05655,1.30
0,580.47,90.00,89.88,-0.05498,3.18
0,594.71,90.00,89.85,-0.05498,3.18
0,600.05,90.00,89.85,-0.05498,2.46
0,604.66,90.00,89.86,-0.05655,0.85
0,610.14,90.00,89.86,-0.05655,-0.94
0,615.61,90.00,89.86,-0.05655,0.29
0,621.09,90.00,89.86,-0.05498,1.02
0,624.53,90.00,89.86,-0.05655,1.16
0,618.45,90.00,89.90,-0.05812,-0.12
0,612.76,90.00,89.93,-0.05812,-2.07
0,609.14,90.00,89.95,-0.05812,-2.72
0,605.80,90.00,89.97,-0.05969,-2.32
0,592.70,90.00,90.02,-0.05969,-2.22
0,555.97,90.00,90.13,-0.06283,-0.48
0,520.81,90.00,90.23,-0.06912,-3.84
0,496.91,90.00,90.27,-0.07069,-4.92
0,486.43,90.00,90.27,-0.07069,-4.19
0,479.00,90.00,90.26,-0.06912,-2.02
0,481.00,90.00,90.22,-0.06440,0.88
0,531.04,90.00,90.03,-0.06283,3.92
0,540.38,90.00,90.00,-0.06126,3.92
0,541.33,90.00,90.00,-0.05969,4.87
0,547.70,90.00,89.98,-0.05969,5.86
0,548.48,90.00,89.98,-0.05969,0.46
0,549.26,90.00,89.98,-0.05812,0.06
0,556.08,90.00,89.96,-0.05655,0.74
0,589.89,90.00,89.86,-0.05498,2.99
0,596.48,90.00,89.85,-0.05498,2.72
0,601.10,90.00,89.86,-0.05655,1.15
0,606.58,90.00,89.86,-0.05655,-0.32
0,610.97,90.00,89.86,-0.05655,-0.54
0,616.34,90.00,89.86,-0.05655,0.78
0,621.69,90.00,89.86,-0.05498,1.70
0,622.96,90.00,89.88,-0.05655,0.14
0,615.33,90.00,89.91,-0.05812,-1.62
0,612.36,90.00,89.93,-0.05812,-2.26
0,608.69,90.00,89.95,-0.05812,-2.49
0,604.33,90.00,89.98,-0.05969,-2.34
0,582.69,90.00,90.05,-0.06126,-0.69
0,543.33,90.00,90.17,-0.06440,-0.69
0,507.31,90.00,90.27,-0.06912,-0.51
0,493.95,90.00,90.27,-0.07069,-4.14
0,484.55,90.00,90.27,-0.06912,-5.66
0,477.32,90.00,90.26,-0.06754,-2.24
0,495.79,90.00,90.16,-0.06283,-0.28
0,534.86,90.00,90.02,-0.06126,1.13
0,540.27,90.00,90.00,-0.05969,5.05
0,543.20,90.00,89.99,-0.05812,5.80
0,548.84,90.00,89.98,-0.05969,3.53
0,548.69,90.00,89.98,-0.05969,-0.42
0,550.52,90.00,89.98,-0.05812,-0.05
0,566.67,90.00,89.92,-0.05498,2.15
0,592.96,90.00,89.85,-0.05498,3.47
0,598.58,90.00,89.85,-0.05498,1.82
0,603.17,90.00,89.86,-0.05655,0.17
0,607.65,90.00,89.86,-0.05655,-1.18
0,613.01,90.00,89.86,-0.05655,0.01
0,618.38,90.00,89.86,-0.05498,1.05
0,622.74,90.00,89.86,-0.05655,1.05
0,620.61,90.00,89.89,-0.05655,0.58
0,611.38,90.00,89.93,-0.05812,-1.38
0,606.74,90.00,89.96,-0.05812,-2.47
0,602.25,90.00,89.97,-0.05969,-2.78
0,591.98,90.00,90.01,-0.05969,-2.55
0,557.46,90.00,90.13,-0.06283,-0.38
0,517.44,90.00,90.24,-0.06912,-0.54
0,496.52,90.00,90.27,-0.07069,-4.50
0,486.17,90.00,90.27,-0.07069,-6.04
0,476.88,90.00,90.26,-0.06912,-2.65
0,482.87,90.00,90.21,-0.06283,-0.85
0,533.32,90.00,90.02,-0.06283,1.10
0,545.07,90.00,89.99,-0.05969,4.94
0,548.66,90.00,89.98,-0.05812,6.68
0,552.75,90.00,89.97,-0.05969,1.76
0,554.02,90.00,89.97,-0.05812,-0.54
0,555.28,90.00,89.97,-0.05812,-0.16
0,562.59,90.00,89.95,-0.05498,2.63
0,587.62,90.00,89.87,-0.05498,2.63
0,592.22,90.00,89.87,-0.05498,2.89
0,597.06,90.00,89.87,-0.05655,1.43
0,601.91,90.00,89.87,-0.05655,0.05
0,605.77,90.00,89.88,-0.05655,-0.79
0,611.58,90.00,89.87,-0.05655,0.42
0,616.42,90.00,89.87,-0.05655,1.19
0,620.27,90.00,89.88,-0.05655,-0.05
0,608.49,90.00,89.93,-0.05812,-1.86
0,605.85,90.00,89.95,-0.05812,-2.74
0,604.76,90.00,89.96,-0.05969,-2.12
0,596.13,90.00,89.99,-0.05969,-1.97
0,566.58,90.00,90.09,-0.06283,-0.86
0,529.80,90.00,90.20,-0.06912,-2.25
0,496.87,90.00,90.27,-0.07069,-3.55
0,488.59,90.00,90.27,-0.07069,-4.78
0,479.37,90.00,90.26,-0.06912,-2.61
0,475.34,90.00,90.24,-0.06597,-0.49
0,523.98,90.00,90.05,-0.06440,1.09
0,544.10,90.00,89.99,-0.06126,1.09
0,546.73,90.00,89.98,-0.05969,4.72
0,551.71,90.00,89.97,-0.05969,6.36
0,552.98,90.00,89.97,-0.05969,2.07
0,554.25,90.00,89.97,-0.05812,-0.56
0,557.51,90.00,89.96,-0.05655,0.06
0,578.59,90.00,89.89,-0.05498,2.50
0,590.15,90.00,89.87,-0.05498,3.09
0,593.96,90.00,89.88,-0.05655,1.27
0,598.69,90.00,89.88,-0.05655,-0.18
0,603.42,90.00,89.88,-0.05655,-0.76
0,608.15,90.00,89.88,-0.05655,0.38
0,612.88,90.00,89.88,-0.05498,1.27
0,617.61,90.00,89.88,-0.05655,0.43
0,613.20,90.00,89.91,-0.05812,-1.28
0,608.19,90.00,89.93,-0.05812,-2.01
0,607.57,90.00,89.94,-0.05812,-2.42
0,606.62,90.00,89.95,-0.05969,-1.64
0,588.96,90.00,90.02,-0.06126,-1.61
0,546.69,90.00,90.15,-0.06283,-1.61
0,512.31,90.00,90.25,-0.06912,-0.56
0,495.30,90.00,90.27,-0.07069,-3.81
0,486.11,90.00,90.27,-0.07069,-5.31
0,478.02,90.00,90.26,-0.06754,-3.75
0,487.35,90.00,90.18,-0.06283,-0.48
0,537.71,90.00,90.01,-0.06283,3.52
0,544.78,90.00,89.99,-0.05969,5.51
0,546.31,90.00,89.98,-0.05969,6.21
0,549.13,90.00,89.98,-0.05969,4.66
0,550.02,90.00,89.98,-0.05969,-0.60
0,550.91,90.00,89.98,-0.05812,-0.14
0,560.91,90.00,89.94,-0.05498,1.99
0,590.34,90.00,89.86,-0.05498,3.34
0,595.71,90.00,89.86,-0.05498,1.94
0,601.07,90.00,89.86,-0.05655,0.54
0,605.41,90.00,89.86,-0.05655,-1.59
0,610.62,90.00,89.86,-0.05655,0.06
0,615.84,90.00,89.86,-0.05655,1.24
0,621.06,90.00,89.86,-0.05655,1.24
0,621.00,90.00,89.88,-0.05655,0.88
0,611.99,90.00,89.93,-0.05812,-1.16
0,608.69,90.00,89.94,-0.05812,-2.48
0,606.64,90.00,89.96,-0.05812,-2.96
0,600.08,90.00,89.98,-0.05969,-2.60
0,572.87,90.00,90.08,-0.06126,-1.38
0,535.44,90.00,90.19,-0.06754,-1.61
0,499.87,90.00,90.28,-0.06912,-5.96
0,490.41,90.00,90.27,-0.07069,-4.38
0,480.05,90.00,90.27,-0.06912,-3.55
0,474.88,90.00,90.25,-0.06597,-1.19
0,515.61,90.00,90.08,-0.06440,3.74
0,543.01,90.00,89.99,-0.06126,3.34
0,544.25,90.00,89.99,-0.05969,5.70
0,548.74,90.00,89.98,-0.05969,5.88
0,549.64,90.00,89.98,-0.05969,-0.71
0,550.53,90.00,89.98,-0.05812,-0.35
0,553.41,90.00,89.97,-0.05655,1.48
0,577.16,90.00,89.89,-0.05498,1.48
0,591.68,90.00,89.86,-0.05498,3.15
0,596.89,90.00,89.86,-0.05498,-10.02
0,601.05,90.00,89.87,-0.05655,1.10
0,606.15,90.00,89.87,-0.05655,-0.62
0,611.25,90.00,89.87,-0.05655,-0.18
0,616.36,90.00,89.87,-0.05498,0.89
0,621.46,90.00,89.87,-0.05655,0.96
0,614.33,90.00,89.91,-0.05812,-0.32
0,610.44,90.00,89.93,-0.05812,-2.26
0,605.83,90.00,89.96,-0.05969,-2.76
0,601.31,90.00,89.97,-0.05969,-2.09
0,591.08,90.00,90.01,-0.06126,-1.49
0,552.39,90.00,90.14,-0.06283,-0.19
0,510.81,90.00,90.26,-0.06912,-2.54
0,495.69,90.00,90.27,-0.07069,-5.36
0,485.47,90.00,90.27,-0.07069,-5.28
0,477.35,90.00,90.26,-0.06754,-2.05
0,486.59,90.00,90.19,-0.06283,1.86
0,537.84,90.00,90.00,-0.06283,2.24
0,546.01,90.00,89.98,-0.05969,2.24
0,547.70,90.00,89.98,-0.05969,5.96
0,551.69,90.00,89.97,-0.05969,6.04
0,551.74,90.00,89.97,-0.05969,-0.82
0,553.73,90.00,89.97,-0.05812,-0.13
0,560.91,90.00,89.95,-0.05655,0.75
0,586.89,90.00,89.87,-0.05498,3.06
0,591.82,90.00,89.87,-0.05498,2.85
0,596.66,90.00,89.87,-0.05655,1.13
0,601.51,90.00,89.87,-0.05655,-0.54
0,606.35,90.00,89.87,-0.05655,-0.80
0,611.19,90.00,89.87,-0.05655,0.48
0,616.03,90.00,89.87,-0.05655,1.32
0,619.88,90.00,89.88,-0.05655,-0.44
0,610.08,90.00,89.93,-0.05812,-1.96
0,608.79,90.00,89.94,-0.05812,-2.25
0,608.13,90.00,89.95,-0.05812,-2.20
0,606.11,90.00,89.96,-0.05969,-2.06
0,577.75,90.00,90.06,-0.06126,-0.83
0,540.95,90.00,90.17,-0.06440,-0.83
0,505.95,90.00,90.26,-0.06912,-0.89
0,494.77,90.00,90.26,-0.07069,-3.68
0,485.64,90.00,90.26,-0.06912,-4.73
0,477.74,90.00,90.25,-0.06754,-2.23
0,499.58,90.00,90.14,-0.06283,-0.39
0,537.33,90.00,90.01,-0.06126,0.78
0,541.10,90.00,90.00,-0.05969,4.65
0,543.10,90.00,89.99,-0.05969,5.63
0,546.60,90.00,89.98,-0.05969,2.85
0,547.24,90.00,89.98,-0.05969,-0.47
0,547.87,90.00,89.98,-0.05812,-0.00
0,568.99,90.00,89.91,-0.05498,2.06
0,593.61,90.00,89.85,-0.05498,3.27
0,599.35,90.00,89.85,-0.05498,1.65
0,605.09,90.00,89.85,-0.05655,-0.11
0,609.75,90.00,89.85,-0.05655,-1.19
0,614.31,90.00,89.86,-0.05655,0.32
0,619.79,90.00,89.86,-0.05655,1.28
0,624.28,90.00,89.86,-0.05655,1.28
0,623.27,90.00,89.88,-0.05655,0.48
0,612.21,90.00,89.93,-0.05812,-1.37
0,609.63,90.00,89.95,-0.05812,-2.46
0,608.49,90.00,89.96,-0.05812,-2.61
0,599.86,90.00,89.99,-0.05969,-2.03
0,569.24,90.00,90.10,-0.06283,-1.39
0,532.29,90.00,90.20,-0.06754,0.26
0,499.37,90.00,90.28,-0.06912,-4.85
0,489.86,90.00,90.27,-0.07069,-5.24
0,480.43,90.00,90.27,-0.06912,-3.45
0,476.23,90.00,90.25,-0.06597,-1.22
0,520.32,90.00,90.07,-0.06440,4.34
0,540.84,90.00,90.00,-0.06126,2.90
0,543.78,90.00,89.99,-0.05969,5.60
0,549.17,90.00,89.98,-0.05969,5.73
0,550.06,90.00,89.98,-0.05969,-0.78
0,550.95,90.00,89.98,-0.05969,-0.36
0,553.83,90.00,89.97,-0.05655,1.48
0,580.66,90.00,89.89,-0.05498,1.48
0,593.40,90.00,89.86,-0.05498,3.34
0,597.69,90.00,89.86,-0.05655,2.25
0,602.91,90.00,89.86,-0.05655,0.59
0,607.12,90.00,89.87,-0.05655,-1.16
0,613.28,90.00,89.86,-0.05655,0.09
0,618.49,90.00,89.86,-0.05498,1.31
0,622.71,90.00,89.87,-0.05655,1.17
0,615.47,90.00,89.91,-0.05812,-0.40
0,611.62,90.00,89.93,-0.05812,-2.46
0,607.00,90.00,89.95,-0.05812,-2.65
0,605.66,90.00,89.97,-0.05969,-2.18
0,592.71,90.00,90.01,-0.05969,-2.50
0,553.99,90.00,90.14,-0.06283,-0.93
0,516.62,90.00,90.24,-0.06912,-2.81
0,496.65,90.00,90.27,-0.07069,-5.04
0,487.28,90.00,90.27,-0.07069,-4.85
0,480.06,90.00,90.26,-0.06912,-2.26
0,484.37,90.00,90.20,-0.06283,1.70
0,532.92,90.00,90.03,-0.06283,1.70
0,540.39,90.00,90.00,-0.06126,2.04
0,542.39,90.00,90.00,-0.05969,5.31
0,546.77,90.00,89.98,-0.05969,5.55
0,547.40,90.00,89.98,-0.05969,-0.87
0,548.03,90.00,89.98,-0.05812,0.17
